Folder: application-notes-data/Quantification/development (part 2)

File: OERonPt_RnD1_newMS.csv
ixdat version = 0.2.2dev
name = 2022-04-07 10_10_27 OER on Pt repeatability.tsv
technique = EC-MS
tstamp = 1649319027.0
backend_name = BackendBase(none, address=none)
id = 2
timecol 'time/s' for: 'Ewe/V' and 'I/mA' and 'selector'
timecol 'M40-x' for: 'M40'
timecol 'M28-x' for: 'M28'
timecol 'M18-x' for: 'M18'
timecol 'M4-x' for: 'M4'
timecol 'M32-x' for: 'M32'
timecol 'M44-x' for: 'M44'
timecol 'M2-x' for: 'M2'
aliases = {"t": ["time/s"], "raw_potential": ["Ewe/V", "<Ewe>/V"], "raw_current": ["I/mA", "<I>/mA"], "cycle": ["cycle number"]}
N_header_lines = 18

time/s,	Ewe/V,	I/mA,	selector,	M40-x,	M40,	M28-x,	M28,	M18-x,	M18,	M4-x,	M4,	M32-x,	M32,	M44-x,	M44,	M2-x,	M2
657.747,	0.9211814,	0.0001182044,	0,	0.909342,	9.104063e-10,	0.760438,	8.567984e-08,	0.686486,	3.883292e-09,	0.611534,	1.170304e-12,	0.83539,	2.100417e-08,	0.984294,	1.250427e-10,	0.537582,	1.776322e-09
706.754,	1.686654,	0.03930981,	0,	173.084,	8.892511e-10,	172.935,	8.392634e-08,	172.861,	2.683909e-09,	172.786,	8.520383e-12,	173.01,	2.033041e-08,	173.159,	1.148073e-10,	172.712,	1.668087e-09
756.52,	0.6914421,	-0.008560208,	0,	345.259,	8.84637e-10,	345.11,	8.143432e-08,	345.036,	2.225146e-09,	344.961,	3.968981e-10,	345.185,	2.012539e-08,	345.334,	1.157729e-10,	344.887,	1.614057e-09
806.312,	0.4060474,	-6.540311e-05,	0,	517.434,	1.75625e-10,	517.285,	1.0275e-09,	517.21,	3.864235e-09,	517.136,	4.14493e-08,	517.359,	4.800306e-10,	517.508,	6.693755e-11,	517.061,	1.908969e-09
855.986,	1.399674,	0.01104762,	1,	689.609,	4.517096e-11,	689.46,	4.732428e-10,	689.385,	4.000404e-09,	689.311,	4.218419e-08,	689.534,	2.907957e-10,	689.683,	4.810368e-11,	689.236,	2.03721e-09
906.209,	0.9973371,	-0.001141854,	1,	861.784,	1.441371e-11,	861.635,	3.284716e-10,	861.561,	3.964713e-09,	861.486,	4.280986e-08,	861.71,	2.403752e-10,	861.859,	7.405053e-11,	861.412,	2.105786e-09
956.014,	0.01027394,	0.0265092,	1,	1033.96,	6.831928e-12,	1033.81,	2.931025e-10,	1033.73,	3.888767e-09,	1033.66,	4.298829e-08,	1033.88,	2.314883e-10,	1034.03,	8.490895e-11,	1033.59,	2.133684e-09
1005.55,	1.001234,	0.003018134,	2,	1206.13,	5.290992e-12,	1205.98,	2.711947e-10,	1205.91,	3.852128e-09,	1205.83,	4.255823e-08,	1206.06,	2.608569e-10,	1206.21,	9.262776e-11,	1205.76,	2.148908e-09
1055,	1.411066,	0.001642795,	2,	1378.31,	5.026293e-12,	1378.16,	2.588791e-10,	1378.08,	3.765981e-09,	1378.01,	4.240557e-08,	1378.23,	4.345369e-10,	1378.38,	9.556266e-11,	1377.93,	2.147657e-09
1105.26,	0.4060206,	-0.001514032,	2,	1550.48,	4.482001e-12,	1550.33,	2.52518e-10,	1550.26,	3.784603e-09,	1550.18,	4.113483e-08,	1550.41,	1.101893e-09,	1550.56,	1.006772e-10,	1550.11,	2.104091e-09
1154.77,	0.6057584,	0.0005384784,	2,	1722.66,	4.155605e-12,	1722.51,	2.350685e-10,	1722.43,	3.77007e-09,	1722.36,	4.212682e-08,	1722.58,	1.955868e-10,	1722.73,	4.584176e-11,	1722.28,	2.181265e-09
1205.32,	1.616852,	0.0235001,	3,	1894.83,	4.013887e-12,	1894.68,	2.287476e-10,	1894.61,	3.72849e-09,	1894.53,	4.170394e-08,	1894.76,	1.936095e-10,	1894.9,	4.038376e-11,	1894.46,	2.170891e-09
1255.2,	0.7868412,	-0.01099215,	3,	2067,	4.184635e-12,	2066.86,	2.262804e-10,	2066.78,	3.675177e-09,	2066.71,	4.106733e-08,	2066.93,	1.964155e-10,	2067.08,	5.66037e-11,	2066.63,	2.183039e-09
1305.08,	0.232487,	0.004816418,	3,	2239.18,	3.864437e-12,	2239.03,	2.109837e-10,	2238.95,	3.647613e-09,	2238.88,	4.110369e-08,	2239.1,	2.680814e-10,	2239.25,	4.398591e-11,	2238.81,	2.166036e-09
1355.16,	1.234075,	0.01379982,	4,	2411.35,	3.627294e-12,	2411.2,	2.061154e-10,	2411.13,	3.681872e-09,	2411.06,	4.167629e-08,	2411.28,	1.881219e-10,	2411.43,	3.898857e-11,	2410.98,	2.187293e-09
1405.41,	1.162512,	-0.0004952202,	4,	2583.53,	3.788996e-12,	2583.38,	2.0295e-10,	2583.31,	3.66311e-09,	2583.23,	4.203178e-08,	2583.45,	1.966538e-10,	2583.6,	3.866396e-11,	2583.16,	2.204151e-09
1455.56,	0.1593188,	-0.009807288,	4,	2755.7,	3.82493e-12,	2755.55,	2.106815e-10,	2755.48,	3.611439e-09,	2755.4,	4.14764e-08,	2755.63,	3.765265e-10,	2755.78,	3.977254e-11,	2755.33,	2.192675e-09
1505.67,	0.8648306,	0.002454715,	4,	2927.88,	3.567087e-12,	2927.73,	2.028898e-10,	2927.65,	3.621419e-09,	2927.58,	4.094723e-08,	2927.8,	1.910436e-10,	2927.95,	3.776202e-11,	2927.51,	2.196601e-09
1555.61,	1.53803,	0.0004273978,	5,	3100.05,	3.888502e-12,	3099.9,	2.045147e-10,	3099.83,	3.657698e-09,	3099.76,	4.107458e-08,	3099.98,	1.871781e-10,	3100.13,	3.772489e-11,	3099.68,	2.213297e-09
1605.86,	0.5328425,	-0.001042226,	5,	3272.23,	3.747858e-12,	3272.08,	2.018759e-10,	3272,	3.584061e-09,	3271.93,	4.075806e-08,	3272.15,	5.639169e-10,	3272.3,	3.929335e-11,	3271.85,	2.171928e-09
1655.18,	0.4753569,	-0.0005578223,	5,	3444.4,	3.841516e-12,	3444.25,	2.056309e-10,	3444.18,	3.583047e-09,	3444.1,	4.023787e-08,	3444.33,	5.698872e-10,	3444.48,	4.006479e-11,	3444.03,	2.156186e-09
1705.43,	0.8265111,	1.62737e-06,	6,	3616.58,	3.648808e-12,	3616.43,	2.008983e-10,	3616.35,	3.557315e-09,	3616.28,	4.075085e-08,	3616.5,	1.915639e-10,	3616.65,	3.729233e-11,	3616.2,	2.20578e-09
1755.33,	0.8307326,	1.284061e-06,	6,	3788.75,	3.837861e-12,	3788.6,	1.984101e-10,	3788.53,	3.555653e-09,	3788.45,	4.0598e-08,	3788.68,	5.786326e-10,	3788.83,	3.862198e-11,	3788.38,	2.193367e-09
1805.28,	0.8492081,	1.62737e-06,	6,	3960.93,	3.661669e-12,	3960.78,	1.993733e-10,	3960.7,	3.595372e-09,	3960.63,	3.976856e-08,	3960.85,	7.544497e-10,	3961.0,	3.968217e-11,	3960.55,	2.136078e-09
1855.12,	0.8634198,	1.970679e-06,	6,	4133.1,	3.591024e-12,	4132.95,	1.971945e-10,	4132.88,	3.556896e-09,	4132.8,	4.045976e-08,	4133.03,	1.977367e-10,	4133.17,	3.703225e-11,	4132.73,	2.180196e-09
1904.82,	0.8737884,	2.123261e-06,	6,	4305.28,	3.751043e-12,	4305.13,	1.969849e-10,	4305.05,	3.546543e-09,	4304.98,	4.050144e-08,	4305.2,	1.867691e-10,	4305.35,	3.697912e-11,	4304.9,	2.208458e-09
1954.54,	0.8816164,	1.703661e-06,	6,	4477.45,	3.666275e-12,	4477.3,	1.92935e-10,	4477.22,	3.506324e-09,	4477.15,	3.909694e-08,	4477.37,	9.314409e-10,	4477.52,	4.015806e-11,	4477.08,	2.095642e-09
2004.44,	1.175244,	0.002501719,	6,	4649.62,	3.494698e-12,	4649.47,	1.913934e-10,	4649.4,	3.48268e-09,	4649.33,	3.916588e-08,	4649.55,	9.59277e-10,	4649.7,	4.036694e-11,	4649.25,	2.088305e-09
2054.6,	1.37753,	0.002502329,	6,	4821.8,	3.434829e-12,	4821.65,	1.899607e-10,	4821.57,	3.523299e-09,	4821.5,	3.979567e-08,	4821.72,	1.894879e-10,	4821.87,	3.645713e-11,	4821.42,	2.200387e-09
2104.8,	1.513899,	0.002501528,	6,	4993.97,	3.332107e-12,	4993.82,	1.866504e-10,	4993.75,	3.499573e-09,	4993.67,	3.96936e-08,	4993.9,	1.829821e-10,	4994.05,	3.616219e-11,	4993.6,	2.203491e-09
2154.86,	1.55987,	0.002502215,	6,	5166.15,	3.029506e-12,	5166,	1.873474e-10,	5165.92,	3.467682e-09,	5165.85,	3.958662e-08,	5166.07,	1.822025e-10,	5166.22,	3.53806e-11,	5165.78,	2.203372e-09
2204.79,	1.578735,	0.002502215,	6,	5338.32,	3.241448e-12,	5338.17,	1.854771e-10,	5338.1,	3.482155e-09,	5338.02,	3.995384e-08,	5338.25,	1.801025e-10,	5338.4,	3.630831e-11,	5337.95,	2.219029e-09
2254.95,	1.589585,	0.0025021,	6,	5510.5,	3.170687e-12,	5510.35,	1.812307e-10,	5510.27,	3.488041e-09,	5510.2,	3.980857e-08,	5510.42,	1.801684e-10,	5510.57,	3.581243e-11,	5510.12,	2.199928e-09
2304.96,	1.368989,	2.237697e-06,	6,	5682.67,	3.693611e-12,	5682.52,	1.818396e-10,	5682.45,	3.48558e-09,	5682.37,	3.996806e-08,	5682.6,	1.749758e-10,	5682.75,	3.454228e-11,	5682.3,	2.221011e-09
2355.02,	1.267446,	2.161406e-06,	6,	5854.85,	3.421758e-12,	5854.7,	1.806919e-10,	5854.62,	3.428853e-09,	5854.55,	4.005501e-08,	5854.77,	1.766313e-10,	5854.92,	3.501298e-11,	5854.47,	2.222174e-09
2404.97,	1.214179,	1.741806e-06,	6,	6027.02,	2.906711e-12,	6026.87,	1.791092e-10,	6026.8,	3.414735e-09,	6026.72,	3.929563e-08,	6026.95,	1.73473e-10,	6027.1,	3.53478e-11,	6026.65,	2.213595e-09
2455.24,	1.180559,	1.512933e-06,	6,	,	,	,	,	,	,	,	,	,	,	,	,	,
2505.66,	1.156464,	1.360351e-06,	6,	,	,	,	,	,	,	,	,	,	,	,	,	,
2555.32,	1.138344,	1.62737e-06,	6,	,	,	,	,	,	,	,	,	,	,	,	,	,
2605.46,	1.614525,	0.005002268,	6,	,	,	,	,	,	,	,	,	,	,	,	,	,
2655.39,	1.629474,	0.005002,	6,	,	,	,	,	,	,	,	,	,	,	,	,	,
2705.36,	1.637161,	0.00500181,	6,	,	,	,	,	,	,	,	,	,	,	,	,	,
2755.55,	1.642632,	0.005001619,	6,	,	,	,	,	,	,	,	,	,	,	,	,	,
2805.6,	1.646857,	0.005002078,	6,	,	,	,	,	,	,	,	,	,	,	,	,	,
2855.74,	1.650223,	0.005002611,	6,	,	,	,	,	,	,	,	,	,	,	,	,	,
2905.44,	1.435314,	1.398497e-06,	6,	,	,	,	,	,	,	,	,	,	,	,	,	,
2955.3,	1.348977,	1.284061e-06,	6,	,	,	,	,	,	,	,	,	,	,	,	,	,
3005.18,	1.29401,	1.474788e-06,	6,	,	,	,	,	,	,	,	,	,	,	,	,	,
3055.2,	1.255855,	1.779952e-06,	6,	,	,	,	,	,	,	,	,	,	,	,	,	,
3105.4,	1.227527,	1.245915e-06,	6,	,	,	,	,	,	,	,	,	,	,	,	,	,
3155.39,	1.205648,	1.970679e-06,	6,	,	,	,	,	,	,	,	,	,	,	,	,	,
3205.44,	1.668041,	0.01000268,	6,	,	,	,	,	,	,	,	,	,	,	,	,	,
3255.53,	1.678773,	0.01000245,	6,	,	,	,	,	,	,	,	,	,	,	,	,	,
3305.73,	1.684725,	0.0100023,	6,	,	,	,	,	,	,	,	,	,	,	,	,	,
3355.73,	1.689069,	0.01000257,	6,	,	,	,	,	,	,	,	,	,	,	,	,	,
3405.95,	1.692606,	0.01000253,	6,	,	,	,	,	,	,	,	,	,	,	,	,	,
3455.63,	1.695468,	0.01000302,	6,	,	,	,	,	,	,	,	,	,	,	,	,	,
3505.87,	1.463012,	1.62737e-06,	6,	,	,	,	,	,	,	,	,	,	,	,	,	,
3555.75,	1.386104,	1.894388e-06,	6,	,	,	,	,	,	,	,	,	,	,	,	,	,
3605.94,	1.336427,	2.085115e-06,	6,	,	,	,	,	,	,	,	,	,	,	,	,	,
3656.14,	1.299469,	1.818097e-06,	6,	,	,	,	,	,	,	,	,	,	,	,	,	,
3706.05,	1.271519,	1.741806e-06,	6,	,	,	,	,	,	,	,	,	,	,	,	,	,
3755.99,	1.249349,	1.551079e-06,	6,	,	,	,	,	,	,	,	,	,	,	,	,	,
3805.96,	1.70171,	0.01500336,	6,	,	,	,	,	,	,	,	,	,	,	,	,	,
3855.86,	1.710654,	0.01500302,	6,	,	,	,	,	,	,	,	,	,	,	,	,	,
3905.91,	1.715682,	0.01500298,	6,	,	,	,	,	,	,	,	,	,	,	,	,	,
3955.7,	1.719361,	0.01500313,	6,	,	,	,	,	,	,	,	,	,	,	,	,	,
4005.93,	1.722302,	0.01500286,	6,	,	,	,	,	,	,	,	,	,	,	,	,	,
4055.88,	1.724885,	0.01500282,	6,	,	,	,	,	,	,	,	,	,	,	,	,	,
4105.77,	1.480899,	1.62737e-06,	6,	,	,	,	,	,	,	,	,	,	,	,	,	,
4155.56,	1.410711,	2.046969e-06,	6,	,	,	,	,	,	,	,	,	,	,	,	,	,
4205.34,	1.365443,	1.818097e-06,	6,	,	,	,	,	,	,	,	,	,	,	,	,	,
4255.34,	1.330747,	1.856242e-06,	6,	,	,	,	,	,	,	,	,	,	,	,	,	,
4305.2,	1.303576,	1.741806e-06,	6,	,	,	,	,	,	,	,	,	,	,	,	,	,
4355.32,	1.281376,	1.856243e-06,	6,	,	,	,	,	,	,	,	,	,	,	,	,	,
4405.39,	1.725955,	0.02000266,	6,	,	,	,	,	,	,	,	,	,	,	,	,	,
4455.55,	1.734038,	0.02000297,	6,	,	,	,	,	,	,	,	,	,	,	,	,	,
4505.58,	1.738539,	0.02000236,	6,	,	,	,	,	,	,	,	,	,	,	,	,	,
4555.76,	1.741805,	0.0200032,	6,	,	,	,	,	,	,	,	,	,	,	,	,	,
4605.56,	1.744342,	0.02000331,	6,	,	,	,	,	,	,	,	,	,	,	,	,	,
4655.56,	1.746585,	0.02000285,	6,	,	,	,	,	,	,	,	,	,	,	,	,	,
4706.03,	1.49202,	1.856242e-06,	6,	,	,	,	,	,	,	,	,	,	,	,	,	,
4755.99,	1.426287,	2.046969e-06,	6,	,	,	,	,	,	,	,	,	,	,	,	,	,
4806.47,	1.384045,	1.856242e-06,	6,	,	,	,	,	,	,	,	,	,	,	,	,	,
4856.41,	1.351606,	1.932533e-06,	6,	,	,	,	,	,	,	,	,	,	,	,	,	,
4906.16,	1.325509,	2.085115e-06,	6,	,	,	,	,	,	,	,	,	,	,	,	,	,
4956.01,	1.303901,	1.970679e-06,	6,	,	,	,	,	,	,	,	,	,	,	,	,	,
4977.44,	1.295717,	1.551079e-06,	6,	,	,	,	,	,	,	,	,	,	,	,	,	,