Folder: application-notes-data/Quantification/development

Note: README.md
# application-notes-data
This repository contains code and data to reproduce the data treatment and figure in our application notes

File: HERonPt_RnD1_newMS.csv
ixdat version = 0.2.2dev
name = 2022-04-06 14_48_52 HER on Pt repeatability.tsv
technique = EC-MS
tstamp = 1649249332.0
backend_name = BackendBase(none, address=none)
id = 4
timecol 'time/s' for: 'Ewe/V' and 'I/mA' and 'selector'
timecol 'M40-x' for: 'M40'
timecol 'M28-x' for: 'M28'
timecol 'M18-x' for: 'M18'
timecol 'M4-x' for: 'M4'
timecol 'M32-x' for: 'M32'
timecol 'M44-x' for: 'M44'
timecol 'M2-x' for: 'M2'
aliases = {"t": ["time/s"], "raw_potential": ["Ewe/V", "<Ewe>/V"], "raw_current": ["I/mA", "<I>/mA"], "cycle": ["cycle number"]}
N_header_lines = 18

time/s,	Ewe/V,	I/mA,	selector,	M40-x,	M40,	M28-x,	M28,	M18-x,	M18,	M4-x,	M4,	M32-x,	M32,	M44-x,	M44,	M2-x,	M2
82.0202,	0.0017556,	0.0002247043,	0,	0.854869,	3.158104e-12,	0.705857,	2.117495e-10,	0.630851,	4.356183e-09,	0.556845,	3.957295e-08,	0.779863,	2.372599e-10,	0.928875,	6.796286e-11,	0.481839,	2.383582e-09
129.181,	0.7576736,	0.1497362,	0,	166.84,	3.30867e-12,	166.691,	1.990616e-10,	166.617,	3.98678e-09,	166.542,	3.683503e-08,	166.766,	2.205415e-10,	166.915,	6.15003e-11,	166.468,	2.202196e-09
176.878,	1.700607,	0.250216,	0,	332.825,	3.187101e-12,	332.676,	2.020623e-10,	332.601,	3.99611e-09,	332.527,	3.64503e-08,	332.75,	2.186448e-10,	332.899,	6.061521e-11,	332.452,	2.199965e-09
224.863,	0.73061,	0.1443352,	0,	498.809,	3.159713e-12,	498.66,	2.082997e-10,	498.586,	3.944773e-09,	498.511,	3.636712e-08,	498.735,	2.192476e-10,	498.884,	6.999078e-11,	498.4375,	2.208951e-09
375.593,	0.9247903,	6.132803e-05,	2,	664.795,	3.403844e-12,	664.646,	2.099689e-10,	664.571,	3.926872e-09,	664.497,	3.639718e-08,	664.72,	2.184568e-10,	664.869,	6.685628e-11,	664.422,	2.208933e-09
423.642,	1.664193,	0.01874883,	2,	830.78,	3.275766e-12,	830.631,	2.161992e-10,	830.557,	3.914012e-09,	830.482,	3.61953e-08,	830.706,	2.188868e-10,	830.855,	8.534735e-11,	830.408,	2.205552e-09
471.797,	0.7009956,	-0.01343821,	2,	996.765,	3.455638e-12,	996.616,	2.153943e-10,	996.541,	3.927542e-09,	996.467,	3.629678e-08,	996.69,	2.189959e-10,	996.839,	7.762831e-11,	996.392,	2.431197e-09
663.619,	1.479273,	0.008276331,	2,	1162.75,	3.219127e-12,	1162.6,	2.141415e-10,	1162.53,	3.872371e-09,	1162.45,	3.613285e-08,	1162.68,	2.167809e-10,	1162.83,	7.256556e-11,	1162.38,	2.2212e-09
711.615,	0.9619694,	-0.002088521,	2,	1328.73,	3.464039e-12,	1328.59,	2.157561e-10,	1328.51,	3.858969e-09,	1328.44,	3.640983e-08,	1328.66,	2.160449e-10,	1328.81,	7.186353e-11,	1328.36,	2.240256e-09
759.616,	0.09929813,	0.006292149,	2,	1494.72,	3.474624e-12,	1494.57,	2.113446e-10,	1494.5,	3.830884e-09,	1494.42,	3.597527e-08,	1494.65,	2.100468e-10,	1494.8,	7.035315e-11,	1494.35,	2.221595e-09
807.428,	1.055573,	0.003503682,	3,	1660.71,	3.507714e-12,	1660.56,	2.105564e-10,	1660.48,	3.795339e-09,	1660.41,	3.581215e-08,	1660.63,	2.10773e-10,	1660.78,	6.409818e-11,	1660.33,	2.240233e-09
855.463,	1.38481,	0.0004861828,	3,	1826.69,	3.232609e-12,	1826.54,	2.084581e-10,	1826.47,	3.773048e-09,	1826.39,	3.582223e-08,	1826.62,	2.103653e-10,	1826.76,	5.786904e-11,	1826.32,	2.224326e-09
903.494,	0.4240276,	-0.001746881,	3,	1992.67,	3.281045e-12,	1992.53,	2.09597e-10,	1992.45,	3.752708e-09,	1992.38,	3.58156e-08,	1992.6,	2.078754e-10,	1992.75,	5.62052e-11,	1992.3,	2.216522e-09
951.388,	0.4350915,	0.001619129,	3,	2158.66,	3.552752e-12,	2158.51,	2.093113e-10,	2158.44,	3.767757e-09,	2158.36,	3.559773e-08,	2158.59,	2.067871e-10,	2158.73,	5.778751e-11,	2158.29,	2.37976e-09
999.645,	1.40034,	0.009529901,	4,	2324.64,	3.183051e-12,	2324.5,	2.068729e-10,	2324.42,	3.705069e-09,	2324.35,	3.589411e-08,	2324.57,	2.072529e-10,	2324.72,	5.562692e-11,	2324.27,	2.220143e-09
1047.48,	1.043837,	-0.0009609189,	4,	2490.63,	3.518923e-12,	2490.48,	2.077735e-10,	2490.41,	3.704776e-09,	2490.33,	3.573303e-08,	2490.56,	2.056357e-10,	2490.7,	5.561629e-11,	2490.26,	2.229926e-09
1095.32,	0.0870576,	-0.01460093,	4,	2656.62,	3.57685e-12,	2656.47,	2.053556e-10,	2656.39,	3.708275e-09,	2656.32,	3.517476e-08,	2656.54,	2.029406e-10,	2656.69,	5.468336e-11,	2656.24,	3.564199e-09
1142.56,	0.8590634,	0.001419871,	4,	2822.6,	3.621076e-12,	2822.45,	2.047107e-10,	2822.38,	3.710295e-09,	2822.3,	3.551317e-08,	2822.53,	2.032099e-10,	2822.67,	5.413997e-11,	2822.23,	2.477245e-09
1190.89,	1.575211,	0.004014424,	5,	2988.59,	3.757758e-12,	2988.44,	2.037133e-10,	2988.36,	3.63404e-09,	2988.29,	3.530439e-08,	2988.51,	2.03504e-10,	2988.66,	5.380714e-11,	2988.21,	2.227994e-09
1239.15,	0.6099356,	-0.004249058,	5,	3154.57,	3.194823e-12,	3154.42,	2.026731e-10,	3154.35,	3.666475e-09,	3154.27,	3.501632e-08,	3154.5,	1.998933e-10,	3154.64,	5.348974e-11,	3154.2,	5.003291e-09
1287.29,	0.3540839,	0.002489451,	5,	3320.56,	3.142292e-12,	3320.41,	1.990419e-10,	3320.33,	3.613253e-09,	3320.26,	3.503547e-08,	3320.48,	1.969699e-10,	3320.63,	5.236608e-11,	3320.18,	5.075347e-09
1335.21,	1.312567,	0.008133186,	6,	3486.54,	3.244737e-12,	3486.39,	2.019103e-10,	3486.32,	3.593047e-09,	3486.24,	3.498119e-08,	3486.46,	1.968579e-10,	3486.61,	5.248894e-11,	3486.17,	2.255027e-09
1383.23,	1.128049,	-0.0006368384,	6,	3652.53,	3.128638e-12,	3652.38,	1.968873e-10,	3652.3,	3.58311e-09,	3652.23,	3.504966e-08,	3652.45,	1.969569e-10,	3652.6,	5.240332e-11,	3652.15,	2.230337e-09
1431.3,	0.1665027,	-0.007819669,	6,	3818.51,	3.149228e-12,	3818.36,	1.986286e-10,	3818.29,	3.604245e-09,	3818.21,	3.553531e-08,	3818.43,	1.956141e-10,	3818.58,	5.249481e-11,	3818.14,	6.565873e-09
1479.32,	0.7952131,	0.002377607,	6,	3984.49,	3.090469e-12,	3984.35,	1.916795e-10,	3984.27,	3.537174e-09,	3984.2,	3.480026e-08,	3984.42,	1.926853e-10,	3984.57,	5.133682e-11,	3984.12,	6.529109e-09
1527.46,	1.643061,	0.01405749,	7,	4150.48,	3.373239e-12,	4150.33,	1.92874e-10,	4150.26,	3.527331e-09,	4150.18,	3.498559e-08,	4150.4,	1.921723e-10,	4150.55,	5.126901e-11,	4150.11,	2.228042e-09
1575.37,	0.6846204,	-0.01867885,	7,	4316.46,	3.113157e-12,	4316.32,	1.931186e-10,	4316.24,	3.517077e-09,	4316.17,	3.489895e-08,	4316.39,	1.931411e-10,	4316.54,	5.096633e-11,	4316.09,	3.519032e-09
1623.43,	0.0603607,	2.199552e-06,	8,	4482.45,	3.29091e-12,	4482.3,	1.939207e-10,	4482.23,	3.58807e-09,	4482.15,	3.506468e-08,	4482.38,	1.925914e-10,	4482.53,	5.055714e-11,	4482.08,	7.996102e-09
1671.48,	0.1181365,	2.199552e-06,	8,	4648.43,	3.067438e-12,	4648.29,	1.919639e-10,	4648.21,	3.485241e-09,	4648.14,	3.459948e-08,	4648.36,	1.888988e-10,	4648.51,	4.950276e-11,	4648.06,	2.357317e-09
1719.46,	0.1614292,	2.313988e-06,	8,	4814.42,	3.207145e-12,	4814.27,	1.815617e-10,	4814.2,	3.47306e-09,	4814.12,	3.474053e-08,	4814.35,	1.844176e-10,	4814.49,	4.863006e-11,	4814.05,	2.217913e-09
1767.49,	0.2102385,	2.161406e-06,	8,	4980.4,	3.032113e-12,	4980.26,	1.787097e-10,	4980.18,	3.489075e-09,	4980.11,	3.512171e-08,	4980.33,	1.834214e-10,	4980.48,	4.928412e-11,	4980.03,	2.222991e-09
1815.38,	0.2550288,	2.275842e-06,	8,	,	,	,	,	,	,	,	,	,	,	,	,	,
1863.37,	0.3102564,	2.390279e-06,	8,	,	,	,	,	,	,	,	,	,	,	,	,	,
1911.6,	0.384647,	-0.0009978599,	8,	,	,	,	,	,	,	,	,	,	,	,	,	,
1959.78,	0.157945,	-0.0009972877,	8,	,	,	,	,	,	,	,	,	,	,	,	,	,
2007.625,	0.09919116,	-0.0009979743,	8,	,	,	,	,	,	,	,	,	,	,	,	,	,
2055.61,	0.07122207,	-0.0009974403,	8,	,	,	,	,	,	,	,	,	,	,	,	,	,
2103.63,	0.06248102,	-0.0009972113,	8,	,	,	,	,	,	,	,	,	,	,	,	,	,
2151.57,	0.05986787,	-0.0009975166,	8,	,	,	,	,	,	,	,	,	,	,	,	,	,
2199.76,	0.05881344,	-0.0009980125,	8,	,	,	,	,	,	,	,	,	,	,	,	,	,
2247.51,	0.101514,	2.352133e-06,	8,	,	,	,	,	,	,	,	,	,	,	,	,	,
2295.54,	0.1344916,	1.779952e-06,	8,	,	,	,	,	,	,	,	,	,	,	,	,	,
2343.39,	0.1676946,	2.352133e-06,	8,	,	,	,	,	,	,	,	,	,	,	,	,	,
2391.26,	0.2053255,	1.932533e-06,	8,	,	,	,	,	,	,	,	,	,	,	,	,	,
2439.51,	0.2456497,	1.894388e-06,	8,	,	,	,	,	,	,	,	,	,	,	,	,	,
2487.5,	0.288228,	1.818097e-06,	8,	,	,	,	,	,	,	,	,	,	,	,	,	,
2535.42,	0.03823299,	-0.004998059,	8,	,	,	,	,	,	,	,	,	,	,	,	,	,
2583.4,	0.03207834,	-0.004998289,	8,	,	,	,	,	,	,	,	,	,	,	,	,	,
2631.56,	0.0317154,	-0.004998059,	8,	,	,	,	,	,	,	,	,	,	,	,	,	,
2680.08,	0.03157404,	-0.004997869,	8,	,	,	,	,	,	,	,	,	,	,	,	,	,
2727.57,	0.03148618,	-0.004997869,	8,	,	,	,	,	,	,	,	,	,	,	,	,	,
2775.52,	0.03145179,	-0.004998136,	8,	,	,	,	,	,	,	,	,	,	,	,	,	,
2823.72,	0.0634132,	2.46657e-06,	8,	,	,	,	,	,	,	,	,	,	,	,	,	,
2871.78,	0.09701736,	1.932533e-06,	8,	,	,	,	,	,	,	,	,	,	,	,	,	,
2919.65,	0.120062,	1.436642e-06,	8,	,	,	,	,	,	,	,	,	,	,	,	,	,
2968.03,	0.1429767,	2.237697e-06,	8,	,	,	,	,	,	,	,	,	,	,	,	,	,
3016.27,	0.1677214,	2.123261e-06,	8,	,	,	,	,	,	,	,	,	,	,	,	,	,
3064.33,	0.1955032,	2.504715e-06,	8,	,	,	,	,	,	,	,	,	,	,	,	,	,
3112.06,	0.1207496,	-0.009997899,	8,	,	,	,	,	,	,	,	,	,	,	,	,	,
3160.19,	0.02235926,	-0.009997517,	8,	,	,	,	,	,	,	,	,	,	,	,	,	,
3208.25,	0.02214914,	-0.009997631,	8,	,	,	,	,	,	,	,	,	,	,	,	,	,
3256.27,	0.02208037,	-0.009998127,	8,	,	,	,	,	,	,	,	,	,	,	,	,	,
3304.32,	0.02210329,	-0.009998585,	8,	,	,	,	,	,	,	,	,	,	,	,	,	,
3352.35,	0.02204217,	-0.009997784,	8,	,	,	,	,	,	,	,	,	,	,	,	,	,
3400.41,	0.02211093,	-0.009998547,	8,	,	,	,	,	,	,	,	,	,	,	,	,	,
3448.48,	0.07855341,	2.04697e-06,	8,	,	,	,	,	,	,	,	,	,	,	,	,	,
3496.38,	0.1009218,	2.313988e-06,	8,	,	,	,	,	,	,	,	,	,	,	,	,	,
3544.37,	0.1204173,	2.428424e-06,	8,	,	,	,	,	,	,	,	,	,	,	,	,	,
3592.12,	0.1396797,	2.199552e-06,	8,	,	,	,	,	,	,	,	,	,	,	,	,	,
3639.94,	0.1604741,	1.665515e-06,	8,	,	,	,	,	,	,	,	,	,	,	,	,	,
3687.58,	0.1834155,	2.313988e-06,	8,	,	,	,	,	,	,	,	,	,	,	,	,	,
3735.17,	0.0172896,	-0.01499812,	8,	,	,	,	,	,	,	,	,	,	,	,	,	,
3782.4,	0.01695722,	-0.01499785,	8,	,	,	,	,	,	,	,	,	,	,	,	,	,
3830.22,	0.01690756,	-0.01499751,	8,	,	,	,	,	,	,	,	,	,	,	,	,	,
3877.89,	0.01686553,	-0.01499778,	8,	,	,	,	,	,	,	,	,	,	,	,	,	,
3925.99,	0.01686935,	-0.01499793,	8,	,	,	,	,	,	,	,	,	,	,	,	,	,
3974.4,	0.01680441,	-0.01499778,	8,	,	,	,	,	,	,	,	,	,	,	,	,	,
4021.79,	0.05040858,	2.352133e-06,	8,	,	,	,	,	,	,	,	,	,	,	,	,	,
4069.32,	0.0843031,	2.199552e-06,	8,	,	,	,	,	,	,	,	,	,	,	,	,	,
4116.76,	0.1026181,	2.657297e-06,	8,	,	,	,	,	,	,	,	,	,	,	,	,	,
4164.41,	0.1198633,	2.161406e-06,	8,	,	,	,	,	,	,	,	,	,	,	,	,	,
4212.14,	0.1372041,	2.04697e-06,	8,	,	,	,	,	,	,	,	,	,	,	,	,	,
4260.13,	0.1555993,	2.237697e-06,	8,	,	,	,	,	,	,	,	,	,	,	,	,	,
4307.48,	0.1753698,	1.512933e-06,	8,	,	,	,	,	,	,	,	,	,	,	,	,	,
4354.9,	0.01325144,	-0.01999784,	8,	,	,	,	,	,	,	,	,	,	,	,	,	,
4403.05,	0.01317886,	-0.01999838,	8,	,	,	,	,	,	,	,	,	,	,	,	,	,
4450.96,	0.01317504,	-0.01999811,	8,	,	,	,	,	,	,	,	,	,	,	,	,	,
4500.25,	0.01318268,	-0.01999762,	8,	,	,	,	,	,	,	,	,	,	,	,	,	,
4547.95,	0.01306807,	-0.01999758,	8,	,	,	,	,	,	,	,	,	,	,	,	,	,
4595.53,	0.01312155,	-0.01999842,	8,	,	,	,	,	,	,	,	,	,	,	,	,	,
4643.35,	0.06850577,	2.390279e-06,	8,	,	,	,	,	,	,	,	,	,	,	,	,	,
4691.13,	0.08862396,	1.932533e-06,	8,	,	,	,	,	,	,	,	,	,	,	,	,	,
4738.9,	0.1050899,	2.313988e-06,	8,	,	,	,	,	,	,	,	,	,	,	,	,	,
4786.63,	0.1205701,	1.894388e-06,	8,	,	,	,	,	,	,	,	,	,	,	,	,	,
4834.4,	0.1361229,	2.04697e-06,	8,	,	,	,	,	,	,	,	,	,	,	,	,	,
4882.11,	0.1523557,	1.818097e-06,	8,	,	,	,	,	,	,	,	,	,	,	,	,	,
4909.6,	0.162327,	1.932533e-06,	8,	,	,	,	,	,	,	,	,	,	,	,	,	,

File: HERonPt_RnD1_newMS_2.csv
ixdat version = 0.2.2dev
name = 2022-04-07 11_53_00 HER on Pt repeatability.tsv
technique = EC-MS
tstamp = 1649325180.0
backend_name = BackendBase(none, address=none)
id = 5
timecol 'time/s' for: 'Ewe/V' and 'I/mA' and 'selector'
timecol 'M40-x' for: 'M40'
timecol 'M28-x' for: 'M28'
timecol 'M18-x' for: 'M18'
timecol 'M4-x' for: 'M4'
timecol 'M32-x' for: 'M32'
timecol 'M44-x' for: 'M44'
timecol 'M2-x' for: 'M2'
aliases = {"t": ["time/s"], "raw_potential": ["Ewe/V", "<Ewe>/V"], "raw_current": ["I/mA", "<I>/mA"], "cycle": ["cycle number"]}
N_header_lines = 18

time/s,	Ewe/V,	I/mA,	selector,	M40-x,	M40,	M28-x,	M28,	M18-x,	M18,	M4-x,	M4,	M32-x,	M32,	M44-x,	M44,	M2-x,	M2
19.6748,	1.119307,	0.0002056183,	0,	0.859468,	3.307309e-12,	0.710553,	1.868108e-10,	0.636596,	3.636958e-09,	0.561639,	4.208231e-08,	0.78551,	1.816777e-10,	0.934425,	3.731745e-11,	0.487681,	2.345613e-09
58.613,	1.691472,	0.01682687,	0,	139.276,	3.258221e-12,	139.127,	1.77332e-10,	139.052,	3.449583e-09,	138.978,	3.955688e-08,	139.201,	1.693723e-10,	139.35,	3.947501e-11,	138.903,	2.207697e-09
98.74,	0.8891512,	-0.003550128,	0,	277.691,	2.971373e-12,	277.542,	1.78857e-10,	277.467,	3.437549e-09,	277.393,	3.950663e-08,	277.616,	1.783927e-10,	277.765,	4.7587e-11,	277.318,	2.211904e-09
138.816,	0.08749167,	-0.01624996,	0,	416.105,	3.235576e-12,	415.956,	1.829244e-10,	415.882,	3.461598e-09,	415.807,	3.918556e-08,	416.031,	3.480933e-10,	416.18,	5.684458e-11,	415.733,	2.171441e-09
178.841,	0.734987,	0.001378645,	0,	554.52,	3.218993e-12,	554.371,	1.793012e-10,	554.297,	3.412415e-09,	554.222,	3.897549e-08,	554.446,	1.720514e-10,	554.595,	4.344252e-11,	554.148,	2.212802e-09
219.014,	1.538266,	0.01472321,	1,	692.934,	3.269873e-12,	692.786,	1.742745e-10,	692.711,	3.40029e-09,	692.636,	3.915622e-08,	692.861,	1.713659e-10,	693.01,	3.600104e-11,	692.563,	2.21262e-09
259.01,	1.063231,	-0.001572817,	1,	831.351,	2.976138e-12,	831.202,	1.739764e-10,	831.127,	3.406265e-09,	831.053,	3.916689e-08,	831.276,	1.682757e-10,	831.425,	3.557692e-11,	830.978,	2.20934e-09
299.022,	0.2629509,	-0.003439047,	1,	969.764,	3.022044e-12,	969.615,	1.735329e-10,	969.54,	3.41445e-09,	969.466,	3.945688e-08,	969.689,	1.670964e-10,	969.838,	3.452402e-11,	969.391,	2.82838e-09
339.164,	0.561694,	0.0005590913,	1,	1108.18,	3.009066e-12,	1108.03,	1.703163e-10,	1107.96,	3.373718e-09,	1107.88,	3.90992e-08,	1108.11,	1.625761e-10,	1108.26,	3.37851e-11,	1107.81,	2.870391e-09
379.267,	1.363804,	0.006900229,	2,	1246.6,	2.957785e-12,	1246.45,	1.735831e-10,	1246.37,	3.416696e-09,	1246.3,	3.949956e-08,	1246.52,	1.649195e-10,	1246.67,	3.454385e-11,	1246.22,	2.224381e-09
419.152,	1.239913,	-0.0005356825,	2,	1385.01,	3.179583e-12,	1384.86,	1.695354e-10,	1384.79,	3.390664e-09,	1384.71,	3.935865e-08,	1384.93,	1.649221e-10,	1385.08,	3.465337e-11,	1384.64,	2.216349e-09
459.18,	0.4393193,	-0.0006834083,	2,	1523.42,	3.05012e-12,	1523.28,	1.694156e-10,	1523.2,	3.402573e-09,	1523.13,	3.874011e-08,	1523.35,	1.654615e-10,	1523.5,	3.491596e-11,	1523.05,	3.697191e-09
498.972,	0.3781853,	0.0003709032,	2,	1661.84,	2.781479e-12,	1661.69,	1.693892e-10,	1661.62,	3.390271e-09,	1661.54,	3.887141e-08,	1661.76,	1.606019e-10,	1661.91,	3.43504e-11,	1661.47,	3.728274e-09
538.786,	1.056656,	1.284061e-06,	3,	1800.25,	3.094956e-12,	1800.11,	1.691992e-10,	1800.03,	3.373735e-09,	1799.96,	3.887646e-08,	1800.18,	1.635076e-10,	1800.33,	3.345856e-11,	1799.88,	2.224925e-09
579.025,	0.989001,	1.703661e-06,	3,	1938.67,	3.229389e-12,	1938.52,	1.703012e-10,	1938.45,	3.404976e-09,	1938.37,	3.91228e-08,	1938.6,	1.621863e-10,	1938.74,	3.405882e-11,	1938.3,	2.220527e-09
619.136,	0.975282,	2.275842e-06,	3,	2077.08,	2.8187e-12,	2076.93,	1.687892e-10,	2076.86,	3.376473e-09,	2076.79,	3.907271e-08,	2077.01,	1.617204e-10,	2077.16,	3.484355e-11,	2076.71,	5.2815e-09
659.108,	0.9681798,	2.123261e-06,	3,	2215.5,	2.683427e-12,	2215.35,	1.582833e-10,	2215.28,	3.397615e-09,	2215.2,	3.872082e-08,	2215.42,	1.591347e-10,	2215.57,	3.375938e-11,	2215.13,	5.382766e-09
699.17,	0.9634349,	1.818097e-06,	3,	2353.91,	2.834463e-12,	2353.76,	1.564958e-10,	2353.69,	3.365155e-09,	2353.62,	3.913149e-08,	2353.84,	1.559297e-10,	2353.99,	3.334794e-11,	2353.54,	2.411729e-09
739.209,	0.960073,	1.665515e-06,	3,	2492.33,	3.028634e-12,	2492.18,	1.560659e-10,	2492.11,	3.369362e-09,	2492.03,	3.916453e-08,	2492.25,	1.565426e-10,	2492.4,	3.246287e-11,	2491.96,	2.223e-09
779.232,	0.9573643,	1.818097e-06,	3,	2630.74,	2.76598e-12,	2630.59,	1.568469e-10,	2630.52,	3.35202e-09,	2630.44,	3.893826e-08,	2630.67,	1.566665e-10,	2630.82,	3.374831e-11,	2630.37,	2.206551e-09
819.529,	0.955286,	2.04697e-06,	3,	2769.16,	2.699773e-12,	2769.01,	1.57103e-10,	2768.93,	3.391924e-09,	2768.86,	3.861825e-08,	2769.08,	1.591498e-10,	2769.23,	3.359001e-11,	2768.79,	6.998079e-09
859.769,	0.5597101,	-0.002498197,	3,	2907.57,	2.696081e-12,	2907.42,	1.553183e-10,	2907.35,	3.369599e-09,	2907.28,	3.865153e-08,	2907.5,	1.576995e-10,	2907.65,	3.514805e-11,	2907.2,	7.018587e-09
899.805,	0.1069746,	-0.002497396,	3,	3045.99,	2.900765e-12,	3045.84,	1.578137e-10,	3045.76,	3.381311e-09,	3045.69,	3.874993e-08,	3045.91,	1.559059e-10,	3046.06,	3.201101e-11,	3045.62,	2.222016e-09
939.878,	0.04673467,	-0.002497434,	3,	3184.4,	2.687121e-12,	3184.25,	1.568796e-10,	3184.18,	3.385054e-09,	3184.11,	3.854151e-08,	3184.33,	1.55651e-10,	3184.48,	3.375003e-11,	3184.03,	2.22718e-09
980.051,	0.04459525,	-0.002497472,	3,	3322.82,	2.89868e-12,	3322.67,	1.591375e-10,	3322.59,	3.358545e-09,	3322.52,	3.867765e-08,	3322.74,	1.576392e-10,	3322.89,	3.423256e-11,	3322.44,	8.539818e-09
1020.125,	0.04409096,	-0.002498388,	3,	3461.23,	2.85671e-12,	3461.08,	1.569596e-10,	3461.01,	3.383744e-09,	3460.93,	3.876587e-08,	3461.16,	1.578611e-10,	3461.31,	3.24932e-11,	3460.86,	8.584485e-09
1060.45,	0.04377005,	-0.002498273,	3,	3599.65,	2.922933e-12,	3599.5,	1.562557e-10,	3599.42,	3.330637e-09,	3599.35,	3.849894e-08,	3599.57,	1.567073e-10,	3599.72,	3.393064e-11,	3599.28,	2.27657e-09
1100.61,	0.04351026,	-0.002497548,	3,	3738.06,	2.819642e-12,	3737.91,	1.563938e-10,	3737.84,	3.321763e-09,	3737.76,	3.806451e-08,	3737.99,	1.560242e-10,	3738.14,	3.227307e-11,	3737.69,	2.209863e-09
1140.82,	0.05759605,	2.542861e-06,	3,	3876.48,	2.725265e-12,	3876.33,	1.565575e-10,	3876.25,	3.296234e-09,	3876.18,	3.825516e-08,	3876.4,	1.550163e-10,	3876.55,	3.25002e-11,	3876.11,	2.206571e-09
1180.61,	0.1003959,	2.275842e-06,	3,	4014.89,	6.243793e-10,	4014.74,	5.850782e-08,	4014.67,	2.752594e-09,	4014.59,	4.474595e-09,	4014.82,	1.225605e-08,	4014.97,	1.214064e-10,	4014.52,	1.75213e-09
1220.72,	0.1250871,	1.856242e-06,	3,	4153.31,	7.453073e-10,	4153.16,	7.045127e-08,	4153.08,	1.367883e-09,	4153.01,	9.077766e-12,	4153.23,	1.652587e-08,	4153.38,	1.006741e-10,	4152.93,	1.558614e-09
1260.87,	0.1483418,	2.237697e-06,	3,	,	,	,	,	,	,	,	,	,	,	,	,	,
1300.94,	0.1745726,	2.008824e-06,	3,	,	,	,	,	,	,	,	,	,	,	,	,	,
1341.02,	0.203833,	2.275842e-06,	3,	,	,	,	,	,	,	,	,	,	,	,	,	,
1380.92,	0.23291,	2.352133e-06,	3,	,	,	,	,	,	,	,	,	,	,	,	,	,
1421.04,	0.2588925,	1.894388e-06,	3,	,	,	,	,	,	,	,	,	,	,	,	,	,
1461.24,	0.03743202,	-0.004998326,	3,	,	,	,	,	,	,	,	,	,	,	,	,	,
1501.32,	0.03344353,	-0.004997831,	3,	,	,	,	,	,	,	,	,	,	,	,	,	,
1541.47,	0.03327161,	-0.004998364,	3,	,	,	,	,	,	,	,	,	,	,	,	,	,
1581.99,	0.0331761,	-0.004997716,	3,	,	,	,	,	,	,	,	,	,	,	,	,	,
1622.29,	0.03312643,	-0.004997754,	3,	,	,	,	,	,	,	,	,	,	,	,	,	,
1662.61,	0.03307677,	-0.004998098,	3,	,	,	,	,	,	,	,	,	,	,	,	,	,
1703,	0.03306149,	-0.004998326,	3,	,	,	,	,	,	,	,	,	,	,	,	,	,
1743.13,	0.05534966,	1.360351e-06,	3,	,	,	,	,	,	,	,	,	,	,	,	,	,
1783.19,	0.09270927,	2.428424e-06,	3,	,	,	,	,	,	,	,	,	,	,	,	,	,
1823.05,	0.1137634,	1.894388e-06,	3,	,	,	,	,	,	,	,	,	,	,	,	,	,
1863.07,	0.1320631,	1.62737e-06,	3,	,	,	,	,	,	,	,	,	,	,	,	,	,
1903.41,	0.1508595,	1.818097e-06,	3,	,	,	,	,	,	,	,	,	,	,	,	,	,
1943.51,	0.171566,	1.551079e-06,	3,	,	,	,	,	,	,	,	,	,	,	,	,	,
1983.71,	0.1946221,	2.199551e-06,	3,	,	,	,	,	,	,	,	,	,	,	,	,	,
2023.72,	0.2192903,	1.818097e-06,	3,	,	,	,	,	,	,	,	,	,	,	,	,	,
2063.88,	0.02467191,	-0.009998013,	3,	,	,	,	,	,	,	,	,	,	,	,	,	,
2103.73,	0.02427459,	-0.009998013,	3,	,	,	,	,	,	,	,	,	,	,	,	,	,
2143.64,	0.02419436,	-0.009998165,	3,	,	,	,	,	,	,	,	,	,	,	,	,	,
2183.79,	0.02415997,	-0.009998394,	3,	,	,	,	,	,	,	,	,	,	,	,	,	,
2223.71,	0.02416762,	-0.009998013,	3,	,	,	,	,	,	,	,	,	,	,	,	,	,
2264.17,	0.02408357,	-0.00999767,	3,	,	,	,	,	,	,	,	,	,	,	,	,	,
2304.21,	0.02412177,	-0.009998203,	3,	,	,	,	,	,	,	,	,	,	,	,	,	,
2343.88,	0.05097531,	2.04697e-06,	3,	,	,	,	,	,	,	,	,	,	,	,	,	,
2383.84,	0.08671889,	1.932533e-06,	3,	,	,	,	,	,	,	,	,	,	,	,	,	,
2423.41,	0.104904,	2.085115e-06,	3,	,	,	,	,	,	,	,	,	,	,	,	,	,
2463.62,	0.1208006,	2.085115e-06,	3,	,	,	,	,	,	,	,	,	,	,	,	,	,
2503.71,	0.1358568,	1.970679e-06,	3,	,	,	,	,	,	,	,	,	,	,	,	,	,
2543.77,	0.1516617,	2.123261e-06,	3,	,	,	,	,	,	,	,	,	,	,	,	,	,
2583.89,	0.1688879,	2.161406e-06,	3,	,	,	,	,	,	,	,	,	,	,	,	,	,
2623.74,	0.1876346,	2.085115e-06,	3,	,	,	,	,	,	,	,	,	,	,	,	,	,
2664.05,	0.01969394,	-0.01499785,	3,	,	,	,	,	,	,	,	,	,	,	,	,	,
2704.04,	0.01947617,	-0.01499785,	3,	,	,	,	,	,	,	,	,	,	,	,	,	,
2744.07,	0.01938066,	-0.01499778,	3,	,	,	,	,	,	,	,	,	,	,	,	,	,
2783.95,	0.0193692,	-0.01499812,	3,	,	,	,	,	,	,	,	,	,	,	,	,	,
2824.19,	0.01933864,	-0.01499778,	3,	,	,	,	,	,	,	,	,	,	,	,	,	,
2864.42,	0.01929662,	-0.01499732,	3,	,	,	,	,	,	,	,	,	,	,	,	,	,
2904.59,	0.01930808,	-0.01499797,	3,	,	,	,	,	,	,	,	,	,	,	,	,	,
2944.46,	0.04811765,	1.894388e-06,	3,	,	,	,	,	,	,	,	,	,	,	,	,	,
2984.03,	0.08228342,	1.970679e-06,	3,	,	,	,	,	,	,	,	,	,	,	,	,	,
3024.15,	0.09934911,	1.856242e-06,	3,	,	,	,	,	,	,	,	,	,	,	,	,	,
3064.31,	0.1139239,	2.237697e-06,	3,	,	,	,	,	,	,	,	,	,	,	,	,	,
3104.66,	0.1275589,	2.161406e-06,	3,	,	,	,	,	,	,	,	,	,	,	,	,	,
3144.8,	0.1413581,	1.589224e-06,	3,	,	,	,	,	,	,	,	,	,	,	,	,	,
3184.7,	0.1558871,	1.970679e-06,	3,	,	,	,	,	,	,	,	,	,	,	,	,	,
3224.85,	0.1716386,	2.161406e-06,	3,	,	,	,	,	,	,	,	,	,	,	,	,	,
3264.77,	0.01636637,	-0.01999845,	3,	,	,	,	,	,	,	,	,	,	,	,	,	,
3304.88,	0.01621738,	-0.01999765,	3,	,	,	,	,	,	,	,	,	,	,	,	,	,
3344.98,	0.01614097,	-0.01999823,	3,	,	,	,	,	,	,	,	,	,	,	,	,	,
3384.84,	0.01615243,	-0.01999819,	3,	,	,	,	,	,	,	,	,	,	,	,	,	,
3424.97,	0.01613333,	-0.01999853,	3,	,	,	,	,	,	,	,	,	,	,	,	,	,
3465.01,	0.01606838,	-0.01999788,	3,	,	,	,	,	,	,	,	,	,	,	,	,	,
3505.18,	0.01609131,	-0.01999788,	3,	,	,	,	,	,	,	,	,	,	,	,	,	,
3545.38,	0.04654365,	1.894388e-06,	3,	,	,	,	,	,	,	,	,	,	,	,	,	,
3585.3,	0.07898642,	2.085115e-06,	3,	,	,	,	,	,	,	,	,	,	,	,	,	,
3625.62,	0.09483723,	1.894388e-06,	3,	,	,	,	,	,	,	,	,	,	,	,	,	,
3665.73,	0.1083347,	1.703661e-06,	3,	,	,	,	,	,	,	,	,	,	,	,	,	,
3705.93,	0.1208579,	1.551079e-06,	3,	,	,	,	,	,	,	,	,	,	,	,	,	,
3746.05,	0.1331634,	1.665515e-06,	3,	,	,	,	,	,	,	,	,	,	,	,	,	,
3786.3,	0.1458968,	1.894388e-06,	3,	,	,	,	,	,	,	,	,	,	,	,	,	,
3826.22,	0.1595547,	2.161406e-06,	3,	,	,	,	,	,	,	,	,	,	,	,	,	,
3836.11,	0.1630885,	1.970679e-06,	3,	,	,	,	,	,	,	,	,	,	,	,	,	,