Folder: application-notes-data/Quantification/development/chip crosscheck

Note: README.md
# application-notes-data
This repository contains code and data to reproduce the data treatment and figure in our application notes

File: HERonPt_RnD1_2019W4C5_noSEM_1-2.csv
ixdat version = 0.2.3
name = 2022-07-06 09_33_53 HER_chip crosscheck_SEM_off AND 2022-07-06 09_33_53 HER_chip crosscheck_SEM_off_01_01_CVA_DUSB0_C01.mpt AND 2022-07-06 09_33_53 HER_chip crosscheck_SEM_off_01_02_CP_DUSB0_C01.mpt
technique = EC-MS
tstamp = 1657092833.0
backend_name = BackendBase(none, address=none)
id = 95
timecol 'time/s' for: 'Ewe/V' and 'raw_current' and 'selector'
timecol 'C0M2 time [s]' for: 'M2'
timecol 'C3M28 time [s]' for: 'M28'
timecol 'C6M44 time [s]' for: 'M44'
timecol 'C1M4 time [s]' for: 'M4'
timecol 'C5M40 time [s]' for: 'M40'
timecol 'C4M32 time [s]' for: 'M32'
timecol 'C2M18 time [s]' for: 'M18'
aliases = {"M2": ["M2 [A]"], "M4": ["M4 [A]"], "M18": ["M18 [A]"], "M28": ["M28 [A]"], "M32": ["M32 [A]"], "M40": ["M40 [A]"], "M44": ["M44 [A]"], "t": ["time/s"], "raw_potential": ["Ewe/V"], "raw_current": ["<I>/mA", "I/mA"], "cycle": ["cycle number"]}
N_header_lines = 18

time/s,	Ewe/V,	raw_current,	selector,	C0M2 time [s],	M2,	C3M28 time [s],	M28,	C6M44 time [s],	M44,	C1M4 time [s],	M4,	C5M40 time [s],	M40,	C4M32 time [s],	M32,	C2M18 time [s],	M18
790.0,	0.921445,	-9.39864e-05,	0,	0.498452,	2.258405e-12,	0.722472,	1.552359e-14,	0.945492,	1.43896e-14,	0.573459,	6.054729e-16,	0.871485,	5.050332e-16,	0.796479,	1.273032e-13,	0.647465,	6.922924e-13
849.604,	1.48735,	-7.79174e-05,	0,	258.051,	2.309913e-12,	258.275,	5.585332e-14,	258.498,	3.2331e-14,	258.126,	1.438147e-14,	258.424,	1.532107e-14,	258.349,	1.667905e-13,	258.2,	7.474936e-13
902.675,	0.4258545,	-0.00134257,	0,	515.605,	5.191931e-12,	515.828,	9.385229e-10,	516.052,	1.269715e-12,	515.679,	1.031409e-13,	515.977,	1.574178e-11,	515.903,	2.020396e-10,	515.754,	2.857235e-11
955.105,	0.643266,	0.000438585,	0,	773.158,	6.546027e-12,	773.382,	5.060671e-12,	773.605,	1.825916e-12,	773.233,	5.742706e-10,	773.531,	1.513276e-13,	773.456,	5.152492e-12,	773.307,	4.160137e-11
1007.83,	1.69788,	0.0872346,	1,	1030.71,	6.962617e-12,	1030.93,	4.11666e-12,	1031.16,	1.548402e-12,	1030.79,	5.626787e-10,	1031.08,	1.431224e-13,	1031.01,	5.587291e-12,	1030.86,	3.952857e-11
1060.58,	0.647807,	-0.00665176,	1,	1288.26,	7.324232e-12,	1288.49,	3.718287e-12,	1288.71,	1.196459e-12,	1288.34,	5.58433e-10,	1288.64,	1.173807e-13,	1288.56,	4.125667e-12,	1288.41,	3.789863e-11
1113.29,	0.427038,	5.42448e-05,	1,	1545.82,	7.318922e-12,	1546.04,	3.71476e-12,	1546.26,	1.150439e-12,	1545.89,	5.530491e-10,	1546.19,	1.262785e-13,	1546.11,	4.856321e-12,	1545.96,	3.702045e-11
1166.06,	1.48249,	0.0072837,	2,	1803.37,	7.556402e-12,	1803.59,	3.738156e-12,	1803.82,	1.09316e-12,	1803.44,	5.494639e-10,	1803.74,	1.24614e-13,	1803.67,	4.028766e-12,	1803.52,	3.580929e-11
1218.78,	0.86364,	-0.00421347,	2,	2060.92,	1.078416e-11,	2061.15,	3.72392e-12,	2061.37,	1.106723e-12,	2061,	5.459199e-10,	2061.3,	1.270966e-13,	2061.22,	3.955483e-12,	2061.07,	3.520407e-11
1273.52,	0.251711,	0.0032539,	2,	2318.48,	7.753985e-12,	2318.7,	3.802252e-12,	2318.92,	1.131967e-12,	2318.55,	5.42224e-10,	2318.85,	1.443698e-13,	2318.77,	3.937116e-12,	2318.625,	3.507831e-11
1326.06,	1.302626,	0.00586452,	3,	2576.03,	1.375255e-11,	2576.25,	3.792078e-12,	2576.47,	1.147972e-12,	2576.1,	5.41944e-10,	2576.4,	1.415186e-13,	2576.33,	3.900666e-12,	2576.18,	3.484663e-11
1378.78,	1.04357,	-0.00111486,	3,	2833.58,	1.564527e-11,	2833.81,	3.678395e-12,	2834.03,	1.13178e-12,	2833.66,	5.40525e-10,	2833.95,	1.352573e-13,	2833.88,	3.846372e-12,	2833.73,	3.440246e-11
1432.11,	0.0436497,	0.0152333,	3,	3091.13,	7.917097e-12,	3091.36,	3.544587e-12,	3091.58,	1.162435e-12,	3091.21,	5.412417e-10,	3091.51,	1.348564e-13,	3091.43,	3.768584e-12,	3091.28,	3.422722e-11
1487.56,	1.15269,	0.00477914,	4,	3348.69,	2.450538e-11,	3348.91,	3.394037e-12,	3349.13,	1.147997e-12,	3348.76,	5.402297e-10,	3349.06,	1.335887e-13,	3348.99,	3.705594e-12,	3348.84,	3.428121e-11
1540.28,	1.19345,	-0.000536032,	4,	3606.24,	8.096252e-12,	3606.46,	3.225433e-12,	3606.69,	1.137309e-12,	3606.32,	5.400839e-10,	3606.61,	1.196932e-13,	3606.54,	3.610926e-12,	3606.39,	3.408113e-11
1593.35,	0.131895,	-0.00688934,	4,	3863.79,	3.349672e-11,	3864.02,	3.169307e-12,	3864.24,	1.159981e-12,	3863.87,	5.382301e-10,	3864.17,	1.234273e-13,	3864.09,	3.563971e-12,	3863.94,	3.395151e-11
1659.66,	0.890359,	2.027559e-06,	5,	4121.35,	8.305883e-12,	4121.57,	3.103661e-12,	4121.79,	1.153302e-12,	4121.42,	5.368975e-10,	4121.72,	1.125531e-13,	4121.64,	3.514929e-12,	4121.49,	3.36362e-11
1836.66,	0.934606,	2.099654e-06,	5,	4378.9,	4.104953e-11,	4379.12,	3.005834e-12,	4379.35,	1.181932e-12,	4378.97,	5.385243e-10,	4379.27,	1.074218e-13,	4379.2,	3.468456e-12,	4379.05,	3.421188e-11
1971.72,	0.277327,	-0.00249652,	6,	4636.45,	4.246194e-11,	4636.68,	2.94054e-12,	4636.9,	1.176853e-12,	4636.53,	5.360309e-10,	4636.83,	1.090499e-13,	4636.75,	3.440098e-12,	4636.6,	3.409147e-11
2147.85,	0.0383884,	-0.00249679,	6,	4894.01,	8.297225e-12,	4894.23,	2.89307e-12,	4894.45,	1.173576e-12,	4894.08,	5.372486e-10,	4894.38,	9.53569e-14,	4894.31,	3.381661e-12,	4894.16,	3.341557e-11
2323.08,	0.171854,	2.29229e-06,	7,	5151.56,	8.263424e-12,	5151.78,	2.932785e-12,	5152.01,	1.245674e-12,	5151.63,	5.379402e-10,	5151.93,	1.111437e-13,	5151.86,	3.478609e-12,	5151.71,	3.352494e-11
2500,	0.72458,	2.09813e-06,	7,	5409.11,	8.177885e-12,	5409.34,	2.838821e-12,	5409.56,	1.219491e-12,	5409.19,	5.387357e-10,	5409.48,	9.178076e-14,	5409.41,	3.480549e-12,	5409.26,	3.364359e-11
2616.55,	0.0282223,	-0.00499672,	8,	5666.67,	8.178382e-12,	5666.89,	2.72336e-12,	5667.11,	1.20502e-12,	5666.74,	5.350864e-10,	5667.04,	9.43039e-14,	5666.96,	4.642e-12,	5666.82,	3.360597e-11
2793.55,	0.0278823,	-0.00499657,	8,	5924.22,	8.301501e-12,	5924.44,	2.72383e-12,	5924.67,	1.153942e-12,	5924.29,	5.375961e-10,	5924.59,	9.244091e-14,	5924.52,	3.372767e-12,	5924.37,	3.349088e-11
2969.08,	0.209897,	2.16336e-06,	9,	6181.77,	1.136468e-11,	6181.99,	2.690369e-12,	6182.22,	1.165339e-12,	6181.85,	5.383314e-10,	6182.14,	9.685539e-14,	6182.07,	3.327675e-12,	6181.92,	3.323308e-11
3145.08,	0.156672,	-0.000257059,	9,	6439.32,	8.459452e-12,	6439.55,	2.6618e-12,	6439.77,	1.163014e-12,	6439.4,	5.375055e-10,	6439.7,	8.539392e-14,	6439.62,	3.311969e-12,	6439.47,	3.301388e-11
3262.91,	0.0187936,	-0.00999679,	10,	6696.88,	8.437058e-12,	6697.1,	2.663675e-12,	6697.32,	1.176796e-12,	6696.95,	5.364027e-10,	6697.25,	9.075206e-14,	6697.17,	3.315658e-12,	6697.03,	3.328238e-11
3439.91,	0.0187974,	-0.00999725,	10,	6954.43,	1.645275e-11,	6954.65,	2.678332e-12,	6954.88,	1.173827e-12,	6954.51,	5.370103e-10,	6954.8,	1.039024e-13,	6954.73,	3.309773e-12,	6954.58,	3.347194e-11
3615.08,	0.230306,	2.15878e-06,	11,	7211.98,	8.461497e-12,	7212.21,	2.645361e-12,	7212.43,	1.154173e-12,	7212.06,	5.369079e-10,	7212.36,	1.007555e-13,	7212.28,	3.278601e-12,	7212.13,	3.328069e-11
3748.8,	0.0814748,	-0.0149962,	12,	7469.54,	2.506384e-11,	7469.76,	2.675781e-12,	7469.98,	1.161135e-12,	7469.61,	5.350356e-10,	7469.91,	8.858532e-14,	7469.84,	3.324151e-12,	7469.69,	3.337215e-11
3922.63,	0.01388439,	-0.0149959,	12,	7727.09,	8.566658e-12,	7727.31,	2.638176e-12,	7727.54,	1.159235e-12,	7727.16,	5.36407e-10,	7727.46,	1.0355e-13,	7727.39,	3.300219e-12,	7727.24,	3.3224e-11
4098.08,	0.0920038,	2.18968e-06,	13,	7984.64,	3.376649e-11,	7984.87,	2.583158e-12,	7985.09,	1.135515e-12,	7984.72,	5.360697e-10,	7985.02,	1.059598e-13,	7984.94,	3.27982e-12,	7984.79,	3.363152e-11
[...]
4598.57,	0.0104499,	-0.0199963,	14,	8757.3,	4.279423e-11,	8757.53,	2.529515e-12,	8757.75,	1.120752e-12,	8757.38,	5.345925e-10,	8757.67,	7.721701e-14,	8757.6,	3.266726e-12,	8757.45,	3.36031e-11
4774.08,	0.141172,	2.09393e-06,	15,	9014.85,	8.666583e-12,	9015.08,	2.58558e-12,	9015.3,	1.127358e-12,	9014.93,	5.343032e-10,	9015.23,	9.997388e-14,	9015.15,	3.26285e-12,	9015,	3.313145e-11
4951.13,	0.918931,	0.00086581,	16,	9272.41,	8.549543e-12,	9272.63,	2.542411e-12,	9272.86,	1.177517e-12,	9272.48,	5.337096e-10,	9272.78,	1.039307e-13,	9272.71,	3.253993e-12,	9272.56,	3.27174e-11
5006.77,	1.46901,	0.000157085,	16,	9529.96,	8.595701e-12,	9530.18,	2.597187e-12,	9530.41,	1.127722e-12,	9530.04,	5.333176e-10,	9530.33,	8.820463e-14,	9530.26,	3.256962e-12,	9530.11,	3.295763e-11
5059.84,	0.4075799,	-0.00128937,	16,	9787.51,	8.599034e-12,	9787.74,	2.535558e-12,	9787.96,	1.125483e-12,	9787.59,	5.361722e-10,	9787.89,	9.114896e-14,	9787.81,	3.291885e-12,	9787.66,	3.329968e-11
5116.74,	0.75091,	0.000945391,	16,	10045.1,	8.596916e-12,	10045.3,	2.588536e-12,	10045.5,	1.127803e-12,	10045.1,	5.345368e-10,	10045.4,	8.904703e-14,	10045.4,	3.302386e-12,	10045.2,	3.328238e-11
5168.57,	1.613,	0.00551577,	17,	10302.6,	8.612942e-12,	10302.8,	2.468806e-12,	10303.1,	1.063834e-12,	10302.7,	5.340458e-10,	10303,	9.570925e-14,	10302.9,	3.272421e-12,	10302.8,	3.286772e-11
5221.64,	0.551513,	-0.00189931,	17,	10560.2,	6.599054e-12,	10560.4,	7.856131e-10,	10560.6,	1.701844e-12,	10560.25,	4.286331e-11,	10560.5,	1.300634e-11,	10560.5,	1.534328e-10,	10560.3,	3.642329e-11
5278.99,	0.615996,	0.000360765,	17,	10817.7,	4.999885e-12,	10818,	9.024718e-10,	10818.2,	1.330436e-12,	10817.8,	9.242067e-14,	10818.1,	1.551342e-11,	10818,	2.012279e-10,	10817.9,	1.823417e-11
5331.49,	1.6661,	0.0630634,	18,	,	,	,	,	,	,	,	,	,	,	,	,	,
5383.74,	0.689434,	-0.0151915,	18,	,	,	,	,	,	,	,	,	,	,	,	,	,
5441.24,	0.480983,	0.000112395,	18,	,	,	,	,	,	,	,	,	,	,	,	,	,
5493.89,	1.53411,	0.00848417,	19,	,	,	,	,	,	,	,	,	,	,	,	,	,
5546.14,	0.821335,	-0.00753861,	19,	,	,	,	,	,	,	,	,	,	,	,	,	,
5603.55,	0.3473044,	0.00170402,	19,	,	,	,	,	,	,	,	,	,	,	,	,	,
5656.29,	1.40223,	0.00520657,	20,	,	,	,	,	,	,	,	,	,	,	,	,	,
5708.54,	0.953328,	-0.00212499,	20,	,	,	,	,	,	,	,	,	,	,	,	,	,
5766.46,	0.225611,	0.00367676,	20,	,	,	,	,	,	,	,	,	,	,	,	,	,
5859.82,	0.89688,	2.00315e-06,	21,	,	,	,	,	,	,	,	,	,	,	,	,	,
6036.82,	0.928291,	2.14772e-06,	21,	,	,	,	,	,	,	,	,	,	,	,	,	,
6172.6,	0.0414103,	-0.00249656,	22,	,	,	,	,	,	,	,	,	,	,	,	,	,
6349.6,	0.0375403,	-0.00249671,	22,	,	,	,	,	,	,	,	,	,	,	,	,	,
6525.22,	0.1837734,	2.08478e-06,	23,	,	,	,	,	,	,	,	,	,	,	,	,	,
6701.22,	0.521275,	-0.000257059,	24,	,	,	,	,	,	,	,	,	,	,	,	,	,
6846.13,	0.0275843,	-0.00499638,	24,	,	,	,	,	,	,	,	,	,	,	,	,	,
7021.22,	0.0663766,	2.29076e-06,	25,	,	,	,	,	,	,	,	,	,	,	,	,	,
7198.22,	0.242069,	2.23164e-06,	25,	,	,	,	,	,	,	,	,	,	,	,	,	,
7346.84,	0.0187095,	-0.009996945,	26,	,	,	,	,	,	,	,	,	,	,	,	,	,
7523.84,	0.0184574,	-0.00999679,	26,	,	,	,	,	,	,	,	,	,	,	,	,	,
7699.22,	0.128672,	2.25872e-06,	27,	,	,	,	,	,	,	,	,	,	,	,	,	,
7876.22,	0.306805,	1.93334e-06,	27,	,	,	,	,	,	,	,	,	,	,	,	,	,
8027.06,	0.0134183,	-0.0149962,	28,	,	,	,	,	,	,	,	,	,	,	,	,	,
8202.22,	0.0169292,	2.364e-06,	29,	,	,	,	,	,	,	,	,	,	,	,	,	,
8379.22,	0.180316,	2.24194e-06,	29,	,	,	,	,	,	,	,	,	,	,	,	,	,
8530.32,	0.01036963,	-0.0199962,	30,	,	,	,	,	,	,	,	,	,	,	,	,	,
8707.32,	0.00988444,	-0.0199962,	30,	,	,	,	,	,	,	,	,	,	,	,	,	,
8883.22,	0.0999196,	2.186626e-06,	31,	,	,	,	,	,	,	,	,	,	,	,	,	,
9060.22,	0.260506,	2.1481e-06,	31,	,	,	,	,	,	,	,	,	,	,	,	,	,
9101.22,	0.3081539,	1.94898e-06,	31,	,	,	,	,	,	,	,	,	,	,	,	,	,

File: HERonPt_RnD1_2021bW1D3_noSEM_1-2.csv
ixdat version = 0.2.3
name = 2022-07-06 15_54_35 HER_chip crosscheck_newchip_SEM_off AND 2022-07-06 15_54_35 HER_chip crosscheck_newchip_SEM_off_01_01_CVA_DUSB0_C01.mpt AND 2022-07-06 15_54_35 HER_chip crosscheck_newchip_SEM_off_01_02_CP_DUSB0_C01.mpt
technique = EC-MS
tstamp = 1657115675.0
backend_name = BackendBase(none, address=none)
id = 156
timecol 'time/s' for: 'Ewe/V' and 'raw_current' and 'selector'
timecol 'C0M2 time [s]' for: 'M2'
timecol 'C1M4 time [s]' for: 'M4'
timecol 'C3M28 time [s]' for: 'M28'
timecol 'C6M44 time [s]' for: 'M44'
timecol 'C5M40 time [s]' for: 'M40'
timecol 'C4M32 time [s]' for: 'M32'
timecol 'C2M18 time [s]' for: 'M18'
aliases = {"M2": ["M2 [A]"], "M4": ["M4 [A]"], "M18": ["M18 [A]"], "M28": ["M28 [A]"], "M32": ["M32 [A]"], "M40": ["M40 [A]"], "M44": ["M44 [A]"], "t": ["time/s"], "raw_potential": ["Ewe/V"], "raw_current": ["<I>/mA", "I/mA"], "cycle": ["cycle number"]}
N_header_lines = 18

time/s,	Ewe/V,	raw_current,	selector,	C0M2 time [s],	M2,	C1M4 time [s],	M4,	C3M28 time [s],	M28,	C6M44 time [s],	M44,	C5M40 time [s],	M40,	C4M32 time [s],	M32,	C2M18 time [s],	M18
511.0,	0.915123,	0.000321593,	0,	0.510736,	3.025169e-12,	0.585719,	1.996643e-15,	0.734686,	4.651813e-14,	0.957638,	3.381737e-14,	0.883654,	4.463083e-15,	0.80867,	2.869252e-13,	0.659703,	1.169109e-12
575.416,	1.39741,	-9.30279e-05,	0,	281.346,	5.722483e-12,	281.42,	3.484121e-13,	281.569,	9.262766e-10,	281.793,	1.205227e-12,	281.718,	1.551136e-11,	281.644,	2.027043e-10,	281.495,	3.340534e-11
633.285,	0.239896,	-0.00390541,	0,	562.181,	7.105092e-12,	562.255,	5.433057e-10,	562.404,	3.588765e-12,	562.628,	6.466612e-13,	562.553,	1.065227e-13,	562.479,	1.217345e-11,	562.33,	4.351982e-11
690.183,	0.918544,	0.00349836,	1,	843.016,	7.693096e-12,	843.091,	5.470592e-10,	843.24,	2.729159e-12,	843.463,	4.806077e-13,	843.389,	8.040438e-14,	843.314,	4.254999e-12,	843.165,	3.988393e-11
747.71,	1.33146,	-0.000195452,	1,	1123.85,	7.833084e-12,	1123.92,	5.395016e-10,	1124.07,	2.516993e-12,	1124.3,	4.823128e-13,	1124.22,	8.424781e-14,	1124.15,	3.99135e-12,	1124.0,	3.809406e-11
805.579,	0.173883,	-0.00428709,	1,	1404.68,	8.065971e-12,	1404.76,	5.386488e-10,	1404.91,	2.364223e-12,	1405.13,	4.251067e-13,	1405.06,	8.069598e-14,	1404.98,	3.750987e-12,	1404.83,	3.69385e-11
862.477,	0.984509,	0.00456159,	2,	1685.52,	8.180294e-12,	1685.59,	5.362608e-10,	1685.74,	2.254534e-12,	1685.97,	4.338061e-13,	1685.89,	9.399614e-14,	1685.82,	3.599566e-12,	1685.67,	3.595026e-11
920.004,	1.26547,	-0.00032517,	2,	1966.36,	1.202473e-11,	1966.43,	5.325917e-10,	1966.58,	2.124149e-12,	1966.8,	4.620345e-13,	1966.73,	9.056986e-14,	1966.65,	3.476503e-12,	1966.5,	3.550651e-11
977.873,	0.107956,	-0.00742304,	2,	2247.19,	8.368092e-12,	2247.27,	5.322787e-10,	2247.41,	2.047166e-12,	2247.64,	4.97966e-13,	2247.56,	6.834354e-14,	2247.49,	3.434675e-12,	2247.34,	3.512745e-11
1034.77,	1.05044,	0.00470344,	3,	2528.02,	1.665708e-11,	2528.1,	5.312813e-10,	2528.25,	2.066485e-12,	2528.47,	5.281221e-13,	2528.4,	8.090659e-14,	2528.32,	3.379052e-12,	2528.17,	3.487331e-11
1092.3,	1.19949,	-0.00047129,	3,	2808.86,	8.527819e-12,	2808.93,	5.285207e-10,	2809.08,	2.018666e-12,	2809.31,	5.344604e-13,	2809.23,	6.352811e-14,	2809.16,	3.348633e-12,	2809.01,	3.449436e-11
1150.17,	0.0419552,	-0.0142185,	3,	3089.69,	2.530282e-11,	3089.77,	5.264891e-10,	3089.92,	2.00795e-12,	3090.14,	5.565652e-13,	3090.07,	7.370976e-14,	3089.99,	3.309178e-12,	3089.84,	3.452599e-11
1207.06,	1.11639,	0.00474018,	4,	3370.53,	8.646666e-12,	3370.6,	5.26823e-10,	3370.75,	2.013065e-12,	3370.97,	5.568527e-13,	3370.9,	7.393251e-14,	3370.83,	3.29056e-12,	3370.68,	3.425455e-11
1264.59,	1.13348,	-0.000664815,	4,	3651.36,	3.414192e-11,	3651.44,	5.25334e-10,	3651.59,	2.008655e-12,	3651.81,	5.761914e-13,	3651.74,	6.32689e-14,	3651.66,	3.274129e-12,	3651.51,	3.423896e-11
1321.82,	0.031651,	0.0205025,	4,	3932.2,	8.750826e-12,	3932.27,	5.244777e-10,	3932.42,	2.00386e-12,	3932.65,	5.741178e-13,	3932.57,	7.383125e-14,	3932.5,	3.274713e-12,	3932.35,	3.40184e-11
1409.54,	0.882416,	2.24575e-06,	5,	4213.03,	4.271831e-11,	4213.11,	5.237346e-10,	4213.26,	1.990422e-12,	4213.48,	5.805573e-13,	4213.41,	6.737557e-14,	4213.33,	3.259849e-12,	4213.18,	3.443169e-11
1602.54,	0.915589,	2.28542e-06,	5,	4493.87,	8.819953e-12,	4493.94,	5.236299e-10,	4494.09,	2.016804e-12,	4494.32,	5.982881e-13,	4494.24,	7.862642e-14,	4494.17,	3.229466e-12,	4494.02,	3.385149e-11
1745.5,	0.03989362,	-0.00249637,	6,	4774.7,	8.665324e-12,	4774.78,	5.245848e-10,	4774.93,	2.023413e-12,	4775.15,	6.722895e-13,	4775.08,	7.606682e-14,	4775,	3.305055e-12,	4774.85,	3.414167e-11
1938.5,	0.0382738,	-0.00249587,	6,	5055.54,	8.465865e-12,	5055.61,	5.109707e-10,	5055.76,	2.025029e-12,	5055.98,	6.827829e-13,	5055.91,	7.185078e-14,	5055.84,	7.671567e-12,	5055.69,	3.408026e-11
2130.08,	0.1661614,	2.52383e-06,	7,	5336.37,	8.699955e-12,	5336.45,	5.240628e-10,	5336.6,	2.034749e-12,	5336.82,	6.04845e-13,	5336.74,	6.541942e-14,	5336.67,	3.290973e-12,	5336.52,	3.404622e-11
2310.02,	0.0291583,	-0.0049968,	8,	5617.21,	8.724607e-12,	5617.28,	5.242187e-10,	5617.43,	2.01861e-12,	5617.65,	6.008234e-13,	5617.58,	7.844012e-14,	5617.51,	3.287098e-12,	5617.36,	3.398099e-11
2503.02,	0.0288107,	-0.00499638,	8,	5898.04,	1.228235e-11,	5898.12,	5.217102e-10,	5898.27,	2.000616e-12,	5898.49,	6.09138e-13,	5898.41,	6.426922e-14,	5898.34,	3.259886e-12,	5898.19,	3.39062e-11
2694.08,	0.135575,	2.55816e-06,	9,	6178.88,	8.888053e-12,	6178.95,	5.23243e-10,	6179.1,	1.982099e-12,	6179.32,	6.089599e-13,	6179.25,	8.029096e-14,	6179.17,	3.230224e-12,	6179.03,	3.377174e-11
2870.84,	0.0378956,	-0.00999607,	10,	6459.71,	1.660762e-11,	6459.79,	5.210771e-10,	6459.93,	1.982525e-12,	6460.16,	5.860895e-13,	6460.08,	8.26602e-14,	6460.01,	3.23904e-12,	6459.86,	3.376184e-11
3063.84,	0.0199397,	-0.00999614,	10,	6740.55,	9.564615e-12,	6740.62,	5.204571e-10,	6740.77,	1.997607e-12,	6740.99,	6.014309e-13,	6740.92,	8.753638e-14,	6740.85,	3.220945e-12,	6740.7,	3.363549e-11
3255.08,	0.112099,	2.6108e-06,	11,	7021.38,	8.858014e-12,	7021.46,	5.193496e-10,	7021.61,	1.992463e-12,	7021.83,	6.010178e-13,	7021.75,	8.46285e-14,	7021.68,	3.223286e-12,	7021.53,	3.365335e-11
3448.08,	0.209817,	2.21028e-06,	11,	7302.22,	2.560398e-11,	7302.29,	5.215282e-10,	7302.44,	2.048778e-12,	7302.66,	6.070321e-13,	7302.59,	8.105235e-14,	7302.51,	3.220001e-12,	7302.37,	3.391648e-11
3624.45,	0.0150114,	-0.0149966,	12,	7583.05,	8.894403e-12,	7583.125,	5.21387e-10,	7583.27,	2.618222e-12,	7583.5,	5.958217e-13,	7583.42,	8.620395e-14,	7583.35,	3.289499e-12,	7583.2,	3.358351e-11
3816.08,	0.0871213,	2.66306e-06,	13,	7863.88,	3.439208e-11,	7863.96,	5.213986e-10,	7864.11,	2.01396e-12,	7864.33,	6.023625e-13,	7864.26,	7.278633e-14,	7864.18,	3.228745e-12,	7864.03,	3.378188e-11
4009.08,	0.177707,	2.52726e-06,	13,	8144.72,	8.948758e-12,	8144.79,	5.212899e-10,	8144.94,	2.03357e-12,	8145.17,	5.841617e-13,	8145.09,	6.197286e-14,	8145.02,	3.217494e-12,	8144.87,	3.35973e-11
4185.64,	0.0116036,	-0.0199959,	14,	8425.55,	4.292613e-11,	8425.63,	5.204541e-10,	8425.78,	2.007071e-12,	8426,	5.950684e-13,	8425.93,	8.156264e-14,	8425.85,	3.220706e-12,	8425.7,	3.397238e-11
4377.08,	0.0387169,	2.71723e-06,	15,	8706.39,	9.010528e-12,	8706.46,	5.202997e-10,	8706.61,	2.033004e-12,	8706.84,	6.038932e-13,	8706.76,	7.376643e-14,	8706.69,	3.212619e-12,	8706.54,	3.358232e-11
[...]
4759.88,	0.833339,	-0.00591993,	16,	9548.89,	8.968862e-12,	9548.97,	5.204106e-10,	9549.12,	2.031967e-12,	9549.34,	5.99422e-13,	9549.27,	8.238476e-14,	9549.19,	3.2277e-12,	9549.04,	3.335899e-11
4817.38,	0.337161,	0.00270946,	16,	9829.73,	8.943732e-12,	9829.8,	5.207484e-10,	9829.95,	2.024219e-12,	9830.17,	5.831695e-13,	9830.1,	7.173735e-14,	9830.03,	3.198277e-12,	9829.88,	3.353282e-11
4874.8,	1.48556,	0.00620689,	17,	10110.6,	8.966157e-12,	10110.6,	5.210378e-10,	10110.8,	2.022879e-12,	10111,	5.687393e-13,	10110.9,	7.350718e-14,	10110.9,	3.242702e-12,	10110.7,	3.347616e-11
4931.88,	0.773367,	-0.0163858,	17,	10391.4,	8.956991e-12,	10391.5,	5.201119e-10,	10391.6,	2.011121e-12,	10391.8,	5.660704e-13,	10391.8,	7.735061e-14,	10391.7,	3.221079e-12,	10391.5,	3.336356e-11
4989.38,	0.397089,	0.000521478,	17,	10672.2,	8.974913e-12,	10672.3,	5.213776e-10,	10672.5,	2.023178e-12,	10672.7,	5.638227e-13,	10672.6,	7.338569e-14,	10672.5,	3.240733e-12,	10672.4,	3.336557e-11
5046.8,	1.54558,	0.00938702,	18,	10953.1,	8.957221e-12,	10953.1,	5.207559e-10,	10953.3,	2.014349e-12,	10953.5,	5.615709e-13,	10953.4,	7.884506e-14,	10953.4,	3.209743e-12,	10953.2,	3.302349e-11
5103.87,	0.713426,	-0.0242187,	18,	11233.9,	8.965533e-12,	11234,	5.207292e-10,	11234.1,	1.992236e-12,	11234.3,	5.43751e-13,	11234.3,	8.636183e-14,	11234.2,	3.237623e-12,	11234,	3.342514e-11
5161.37,	0.457059,	0.000302766,	18,	11514.7,	8.986274e-12,	11514.8,	5.21495e-10,	11515,	2.012117e-12,	11515.2,	5.508182e-13,	11515.1,	6.608357e-14,	11515,	3.218965e-12,	11514.9,	3.327652e-11
5218.79,	1.60554,	0.0211638,	19,	11795.6,	9.013051e-12,	11795.7,	5.238354e-10,	11795.8,	1.997829e-12,	11796,	5.298555e-13,	11795.9,	6.504677e-14,	11795.9,	3.243815e-12,	11795.7,	3.345417e-11
5275.87,	0.653429,	-0.00539285,	19,	12076.4,	9.033577e-12,	12076.5,	5.217052e-10,	12076.6,	1.964668e-12,	12076.8,	5.220147e-13,	12076.8,	6.656955e-14,	12076.7,	3.235407e-12,	12076.6,	3.327594e-11
5333.36,	0.516952,	0.000300391,	19,	12357.2,	9.000889e-12,	12357.3,	5.201544e-10,	12357.5,	1.986947e-12,	12357.7,	5.248051e-13,	12357.6,	6.307442e-14,	12357.5,	3.259987e-12,	12357.4,	3.345407e-11
5390.78,	1.665501,	0.0613567,	20,	12638.1,	9.023334e-12,	12638.2,	5.206491e-10,	12638.3,	2.003803e-12,	12638.5,	5.23906e-13,	12638.5,	8.155046e-14,	12638.4,	3.234512e-12,	12638.2,	3.338723e-11
5447.86,	0.593517,	-0.00197533,	20,	,	,	,	,	,	,	,	,	,	,	,	,	,
5505.36,	0.57698,	0.000359207,	20,	,	,	,	,	,	,	,	,	,	,	,	,	,
5656.92,	0.901232,	2.1687e-06,	21,	,	,	,	,	,	,	,	,	,	,	,	,	,
5836.11,	0.662874,	-0.00249598,	22,	,	,	,	,	,	,	,	,	,	,	,	,	,
5996.89,	0.0377351,	-0.00249652,	22,	,	,	,	,	,	,	,	,	,	,	,	,	,
6188.23,	0.105345,	2.47233e-06,	23,	,	,	,	,	,	,	,	,	,	,	,	,	,
6381.23,	0.208377,	2.46051e-06,	23,	,	,	,	,	,	,	,	,	,	,	,	,	,
6563.31,	0.0282452,	-0.0049968,	24,	,	,	,	,	,	,	,	,	,	,	,	,	,
6755.23,	0.0804662,	2.34798e-06,	25,	,	,	,	,	,	,	,	,	,	,	,	,	,
6948.23,	0.1748566,	2.58982e-06,	25,	,	,	,	,	,	,	,	,	,	,	,	,	,
7126.69,	0.0193819,	-0.00999645,	26,	,	,	,	,	,	,	,	,	,	,	,	,	,
7319.69,	0.0192215,	-0.00999618,	26,	,	,	,	,	,	,	,	,	,	,	,	,	,
7511.23,	0.150593,	2.4567e-06,	27,	,	,	,	,	,	,	,	,	,	,	,	,	,
7688.74,	0.0144001,	-0.0149963,	28,	,	,	,	,	,	,	,	,	,	,	,	,	,
7881.74,	0.0143314,	-0.0149956,	28,	,	,	,	,	,	,	,	,	,	,	,	,	,
8073.23,	0.130769,	2.28542e-06,	29,	,	,	,	,	,	,	,	,	,	,	,	,	,
8250.07,	0.0111031,	-0.0199961,	30,	,	,	,	,	,	,	,	,	,	,	,	,	,
8443.07,	0.0109809,	-0.0199962,	30,	,	,	,	,	,	,	,	,	,	,	,	,	,
8634.23,	0.107855,	2.4258e-06,	31,	,	,	,	,	,	,	,	,	,	,	,	,	,
8822.23,	0.1906845,	2.50476e-06,	31,	,	,	,	,	,	,	,	,	,	,	,	,	,