Folder: application-notes-data/Quantification/development/chip crosscheck (part 2)

File: OERonPt_RnD1_2019W4D2_noSEM_1-2.csv
ixdat version = 0.2.3
name = 2022-07-06 12_43_20 OER_chip crosscheck_SEM_off AND 2022-07-06 12_43_20 OER_chip crosscheck_SEM_off_01_01_CVA_DUSB0_C01.mpt AND 2022-07-06 12_43_20 OER_chip crosscheck_SEM_off_01_02_CP_DUSB0_C01.mpt
technique = EC-MS
tstamp = 1657104200.0
backend_name = BackendBase(none, address=none)
id = 95
timecol 'time/s' for: 'Ewe/V' and 'raw_current' and 'selector'
timecol 'C0M2 time [s]' for: 'M2'
timecol 'C6M44 time [s]' for: 'M44'
timecol 'C3M28 time [s]' for: 'M28'
timecol 'C1M4 time [s]' for: 'M4'
timecol 'C5M40 time [s]' for: 'M40'
timecol 'C4M32 time [s]' for: 'M32'
timecol 'C2M18 time [s]' for: 'M18'
aliases = {"M2": ["M2 [A]"], "M4": ["M4 [A]"], "M18": ["M18 [A]"], "M28": ["M28 [A]"], "M32": ["M32 [A]"], "M40": ["M40 [A]"], "M44": ["M44 [A]"], "t": ["time/s"], "raw_potential": ["Ewe/V"], "raw_current": ["<I>/mA", "I/mA"], "cycle": ["cycle number"]}
N_header_lines = 18

time/s,	Ewe/V,	raw_current,	selector,	C0M2 time [s],	M2,	C6M44 time [s],	M44,	C3M28 time [s],	M28,	C1M4 time [s],	M4,	C5M40 time [s],	M40,	C4M32 time [s],	M32,	C2M18 time [s],	M18
763.0,	0.858436,	-9.16579e-05,	0,	0.483222,	2.908068e-12,	0.930055,	3.828045e-14,	0.706139,	4.142325e-14,	0.557194,	2.105995e-17,	0.855083,	9.233947e-16,	0.781111,	2.645936e-13,	0.632166,	1.136798e-12
826.067,	1.48108,	0.000271927,	0,	276.954,	5.749273e-12,	277.401,	1.467387e-12,	277.177,	7.775537e-10,	277.028,	8.489983e-14,	277.326,	1.312893e-11,	277.252,	1.712172e-10,	277.103,	3.359329e-11
883.036,	0.341606,	-0.00185489,	0,	553.423,	6.161141e-12,	553.87,	2.63349e-12,	553.646,	7.008483e-11,	553.497,	4.063905e-10,	553.795,	2.389212e-12,	553.721,	3.173711e-11,	553.572,	3.424907e-11
939.634,	0.810858,	0.00148928,	0,	829.892,	6.603755e-12,	830.339,	9.314115e-13,	830.115,	4.250212e-12,	829.966,	4.604981e-10,	830.264,	1.371932e-13,	830.19,	9.35052e-12,	830.041,	3.557213e-11
995.362,	1.47507,	0.000101423,	1,	1106.36,	7.1641e-12,	1106.81,	7.285599e-13,	1106.58,	3.416324e-12,	1106.43,	4.636783e-10,	1106.73,	1.258249e-13,	1106.66,	4.052318e-12,	1106.51,	3.35084e-11
1052.33,	0.335636,	-0.00168597,	1,	1382.83,	7.235388e-12,	1383.28,	7.074919e-13,	1383.05,	3.286409e-12,	1382.9,	4.596634e-10,	1383.2,	1.21378e-13,	1383.13,	3.909037e-12,	1382.98,	3.224198e-11
1108.93,	0.816862,	0.00165886,	1,	1659.3,	7.419811e-12,	1659.75,	6.993312e-13,	1659.52,	3.142979e-12,	1659.37,	4.56214e-10,	1659.67,	1.206693e-13,	1659.6,	3.740838e-12,	1659.45,	3.107976e-11
1164.66,	1.46907,	4.66021e-05,	2,	1935.77,	7.489771e-12,	1936.22,	7.475503e-13,	1935.99,	2.917338e-12,	1935.84,	4.54413e-10,	1936.14,	9.634512e-14,	1936.07,	3.593216e-12,	1935.92,	3.065035e-11
1221.63,	0.32962,	-0.00212644,	2,	2212.24,	7.487284e-12,	2212.69,	7.733163e-13,	2212.46,	2.756885e-12,	2212.31,	4.521447e-10,	2212.61,	1.054252e-13,	2212.54,	4.099763e-12,	2212.39,	2.99589e-11
1278.23,	0.822838,	0.0019479,	2,	2488.71,	7.610894e-12,	2489.15,	7.767547e-13,	2488.93,	2.699558e-12,	2488.78,	4.507505e-10,	2489.08,	1.026104e-13,	2489.01,	3.409391e-12,	2488.86,	2.976331e-11
1333.95,	1.46306,	7.70451e-06,	3,	2765.18,	7.479427e-12,	2765.62,	7.931613e-13,	2765.4,	2.567038e-12,	2765.25,	4.500163e-10,	2765.55,	1.01521e-13,	2765.47,	4.646123e-12,	2765.33,	2.976447e-11
1390.92,	0.323577,	-0.00256225,	3,	3041.65,	7.683404e-12,	3042.09,	7.927603e-13,	3041.87,	2.494434e-12,	3041.72,	4.507965e-10,	3042.02,	8.305711e-14,	3041.94,	3.331842e-12,	3041.8,	2.929803e-11
1447.52,	0.828869,	0.00230256,	3,	3318.12,	7.310191e-12,	3318.56,	8.449241e-13,	3318.34,	4.419084e-12,	3318.19,	4.446218e-10,	3318.49,	1.310899e-13,	3318.41,	6.24336e-12,	3318.27,	2.921783e-11
1503.25,	1.45706,	-1.71811e-05,	4,	3594.59,	7.709329e-12,	3595.03,	8.295544e-13,	3594.81,	2.422932e-12,	3594.66,	4.51813e-10,	3594.96,	9.167953e-14,	3594.88,	3.315953e-12,	3594.73,	2.893832e-11
1560.22,	0.317586,	-0.00294213,	4,	3871.06,	7.223128e-12,	3871.5,	8.585766e-13,	3871.28,	2.433746e-12,	3871.13,	4.460939e-10,	3871.43,	9.348583e-14,	3871.35,	7.284413e-12,	3871.2,	2.93243e-11
1616.82,	0.834841,	0.00263342,	4,	4147.52,	7.612242e-12,	4147.97,	8.57807e-13,	4147.75,	2.467255e-12,	4147.6,	4.521364e-10,	4147.9,	8.623634e-14,	4147.82,	3.423845e-12,	4147.67,	2.904187e-11
1796.86,	0.917812,	2.22439e-06,	5,	4423.99,	7.10913e-12,	4424.44,	9.054753e-13,	4424.22,	2.390054e-12,	4424.07,	4.436867e-10,	4424.37,	8.776725e-14,	4424.29,	8.595295e-12,	4424.14,	2.930592e-11
1978.62,	1.45983,	0.00250351,	6,	4700.46,	7.475738e-12,	4700.91,	8.661622e-13,	4700.69,	2.366665e-12,	4700.54,	4.549668e-10,	4700.84,	9.588746e-14,	4700.76,	3.627215e-12,	4700.61,	2.924523e-11
2168.62,	1.59775,	0.00250328,	6,	4976.93,	7.691002e-12,	4977.38,	8.486016e-13,	4977.16,	2.342754e-12,	4977.01,	4.504521e-10,	4977.31,	7.615595e-14,	4977.23,	4.258803e-12,	4977.08,	2.872666e-11
2350.7,	1.154809,	2.07295e-06,	7,	5253.4,	7.812778e-12,	5253.85,	8.497032e-13,	5253.625,	2.320382e-12,	5253.48,	4.516862e-10,	5253.77,	7.489236e-14,	5253.7,	3.205012e-12,	5253.55,	2.854183e-11
2521.11,	1.17589,	0.00500315,	8,	5529.87,	7.787421e-12,	5530.32,	8.521776e-13,	5530.1,	2.325513e-12,	5529.95,	4.512408e-10,	5530.24,	9.097485e-14,	5530.17,	3.345413e-12,	5530.02,	2.854073e-11
2675.99,	1.64475,	0.00500398,	8,	5806.34,	7.885516e-12,	5806.79,	8.434661e-13,	5806.56,	2.300278e-12,	5806.41,	4.497187e-10,	5806.71,	6.654937e-14,	5806.64,	3.181976e-12,	5806.49,	2.832416e-11
2855.88,	1.43596,	2.26406e-06,	9,	6082.81,	7.944471e-12,	6083.26,	8.256503e-13,	6083.03,	2.300218e-12,	6082.88,	4.485691e-10,	6083.18,	8.800216e-14,	6083.11,	3.15909e-12,	6082.96,	2.808804e-11
3045.88,	1.12269,	2.28466e-06,	9,	6359.28,	7.843922e-12,	6359.73,	8.357468e-13,	6359.5,	2.321103e-12,	6359.35,	4.476627e-10,	6359.65,	9.759656e-14,	6359.58,	3.750829e-12,	6359.43,	2.819042e-11
3178.63,	1.6797,	0.0100039,	10,	6635.75,	7.98717e-12,	6636.2,	8.170279e-13,	6635.97,	2.260119e-12,	6635.82,	4.486105e-10,	6636.12,	8.313811e-14,	6636.05,	3.145284e-12,	6635.9,	2.790606e-11
3368.63,	1.69874,	0.0100036,	10,	6912.22,	7.71265e-12,	6912.67,	8.372655e-13,	6912.44,	2.538988e-12,	6912.29,	4.473328e-10,	6912.59,	7.5512e-14,	6912.52,	4.494321e-12,	6912.37,	2.816278e-11
3546.59,	1.3324,	2.25529e-06,	11,	7188.69,	7.952094e-12,	7189.13,	8.149177e-13,	7188.91,	2.279975e-12,	7188.76,	4.491037e-10,	7189.06,	7.56011e-14,	7188.99,	3.189165e-12,	7188.84,	2.791194e-11
3720.31,	1.29738,	0.0150037,	12,	7465.16,	7.565822e-12,	7465.6,	8.332399e-13,	7465.38,	2.252598e-12,	7465.23,	4.466843e-10,	7465.53,	8.208107e-14,	7465.45,	5.748382e-12,	7465.31,	2.844623e-11
3873.54,	1.72371,	0.015004,	12,	7741.63,	7.847134e-12,	7742.07,	8.088103e-13,	7741.85,	2.863465e-12,	7741.7,	4.474318e-10,	7742,	9.048884e-14,	7741.92,	3.308785e-12,	7741.78,	2.800106e-11
4050.1,	1.49889,	1.852472e-06,	13,	8018.1,	7.375526e-12,	8018.54,	8.355444e-13,	8018.32,	2.263553e-12,	8018.17,	4.44326e-10,	8018.47,	8.145332e-14,	8018.39,	7.068439e-12,	8018.24,	2.855313e-11
4238.62,	1.29168,	1.93792e-06,	13,	8294.57,	7.736026e-12,	8295.01,	8.095475e-13,	8294.79,	2.235563e-12,	8294.64,	4.508916e-10,	8294.94,	7.944857e-14,	8294.86,	3.336916e-12,	8294.71,	2.838941e-11
4380.63,	1.73983,	0.0200042,	14,	8571.03,	7.260501e-12,	8571.48,	8.321708e-13,	8571.26,	2.25864e-12,	8571.11,	4.429707e-10,	8571.41,	8.551546e-14,	8571.33,	8.284078e-12,	8571.18,	2.863734e-11
[...]
4932.3,	0.919411,	0.000255019,	16,	9400.44,	7.957334e-12,	9400.89,	7.725955e-13,	9400.67,	2.233992e-12,	9400.52,	4.482736e-10,	9400.82,	8.218635e-14,	9400.74,	3.168453e-12,	9400.59,	2.799209e-11
4988.9,	1.34966,	-0.000212415,	16,	9676.91,	7.954455e-12,	9677.36,	7.783829e-13,	9677.14,	2.197676e-12,	9676.99,	4.475384e-10,	9677.29,	7.321564e-14,	9677.21,	3.168036e-12,	9677.06,	2.781488e-11
5045.87,	0.210164,	-0.00383496,	16,	9953.38,	8.012912e-12,	9953.83,	7.726886e-13,	9953.61,	2.662461e-12,	9953.46,	4.451297e-10,	9953.75,	9.345747e-14,	9953.68,	3.178137e-12,	9953.53,	2.781231e-11
5102.2,	0.93735,	0.00450833,	17,	10229.8,	8.052391e-12,	10230.3,	7.56197e-13,	10230.1,	2.199596e-12,	10229.9,	4.448742e-10,	10230.2,	8.030311e-14,	10230.2,	3.085068e-12,	10230.0,	2.768241e-11
5158.8,	1.33166,	-0.00030817,	17,	10506.3,	8.086266e-12,	10506.8,	7.422813e-13,	10506.5,	2.175571e-12,	10506.4,	4.456157e-10,	10506.7,	8.411009e-14,	10506.6,	3.102969e-12,	10506.5,	2.765654e-11
5215.77,	0.192194,	-0.00389072,	17,	10782.8,	8.114647e-12,	10783.2,	7.371621e-13,	10783,	2.182942e-12,	10782.9,	4.446715e-10,	10783.2,	8.948848e-14,	10783.1,	3.074393e-12,	10782.9,	2.765145e-11
5272.09,	0.955346,	0.00435617,	18,	11059.3,	5.207588e-12,	11059.7,	1.022188e-12,	11059.5,	7.653083e-10,	11059.3,	9.216552e-14,	11059.6,	1.264837e-11,	11059.6,	1.604469e-10,	11059.4,	1.742038e-11
5328.69,	1.31366,	-0.000322805,	18,	,	,	,	,	,	,	,	,	,	,	,	,	,
5385.66,	0.1742321,	-0.00441304,	18,	,	,	,	,	,	,	,	,	,	,	,	,	,
5441.99,	0.973337,	0.00425638,	19,	,	,	,	,	,	,	,	,	,	,	,	,	,
5498.59,	1.29567,	-0.000338812,	19,	,	,	,	,	,	,	,	,	,	,	,	,	,
5555.56,	0.156234,	-0.00496015,	19,	,	,	,	,	,	,	,	,	,	,	,	,	,
5611.88,	0.9913401,	0.00416021,	20,	,	,	,	,	,	,	,	,	,	,	,	,	,
5668.48,	1.27768,	-0.000359964,	20,	,	,	,	,	,	,	,	,	,	,	,	,	,
5725.45,	0.13825,	-0.00561455,	20,	,	,	,	,	,	,	,	,	,	,	,	,	,
5792.32,	0.8797648,	2.20875e-06,	21,	,	,	,	,	,	,	,	,	,	,	,	,	,
5982.32,	0.933132,	1.97377e-06,	21,	,	,	,	,	,	,	,	,	,	,	,	,	,
6162.94,	1.559424,	0.00250366,	22,	,	,	,	,	,	,	,	,	,	,	,	,	,
6352.94,	1.604241,	0.0025034,	22,	,	,	,	,	,	,	,	,	,	,	,	,	,
6535.72,	1.32723,	2.11682e-06,	23,	,	,	,	,	,	,	,	,	,	,	,	,	,
6691.36,	1.62503,	0.00500337,	24,	,	,	,	,	,	,	,	,	,	,	,	,	,
6881.36,	1.65243,	0.00500311,	24,	,	,	,	,	,	,	,	,	,	,	,	,	,
7061.51,	1.42986,	2.1584e-06,	25,	,	,	,	,	,	,	,	,	,	,	,	,	,
7251.51,	1.33815,	2.01345e-06,	25,	,	,	,	,	,	,	,	,	,	,	,	,	,
7408.47,	1.69209,	0.010004,	26,	,	,	,	,	,	,	,	,	,	,	,	,	,
7587.15,	1.52871,	2.21714e-06,	27,	,	,	,	,	,	,	,	,	,	,	,	,	,
7777.15,	1.40919,	2.12063e-06,	27,	,	,	,	,	,	,	,	,	,	,	,	,	,
7935.23,	1.717098,	0.0150045,	28,	,	,	,	,	,	,	,	,	,	,	,	,	,
8125.23,	1.729946,	0.015004,	28,	,	,	,	,	,	,	,	,	,	,	,	,	,
8301.52,	1.45281,	2.12102e-06,	29,	,	,	,	,	,	,	,	,	,	,	,	,	,
8476.51,	1.54967,	0.02000358,	30,	,	,	,	,	,	,	,	,	,	,	,	,	,
8650.51,	1.74948,	0.0200042,	30,	,	,	,	,	,	,	,	,	,	,	,	,	,
8826.32,	1.49867,	2.108809e-06,	31,	,	,	,	,	,	,	,	,	,	,	,	,	,
9016.32,	1.43623,	1.99208e-06,	31,	,	,	,	,	,	,	,	,	,	,	,	,	,
9122.74,	1.60332,	0.00351911,	32,	,	,	,	,	,	,	,	,	,	,	,	,	,
9179.32,	0.665982,	-0.0461464,	32,	,	,	,	,	,	,	,	,	,	,	,	,	,
9235.65,	0.481615,	5.70749e-05,	32,	,	,	,	,	,	,	,	,	,	,	,	,	,
9292.05,	1.60962,	0.0225498,	33,	,	,	,	,	,	,	,	,	,	,	,	,	,
9348.61,	0.660024,	-0.00685683,	33,	,	,	,	,	,	,	,	,	,	,	,	,	,
9404.94,	0.487627,	0.00010367,	33,	,	,	,	,	,	,	,	,	,	,	,	,	,
9461.34,	1.61562,	0.0250598,	34,	,	,	,	,	,	,	,	,	,	,	,	,	,
9517.91,	0.654015,	-0.00589488,	34,	,	,	,	,	,	,	,	,	,	,	,	,	,
9574.24,	0.493611,	0.000134,	34,	,	,	,	,	,	,	,	,	,	,	,	,	,
9599.08,	0.990639,	0.00439324,	35,	,	,	,	,	,	,	,	,	,	,	,	,	,

File: OERonPt_RnD1_2021bW1D3_noSEM_1-2.csv
ixdat version = 0.2.3
name = 2022-07-06 19_26_18 OER_chip crosscheck_newchip_SEM_off AND 2022-07-06 19_26_18 OER_chip crosscheck_newchip_SEM_off_01_01_CVA_DUSB0_C01.mpt AND 2022-07-06 19_26_18 OER_chip crosscheck_newchip_SEM_off_01_02_CP_DUSB0_C01.mpt
technique = EC-MS
tstamp = 1657128378.0
backend_name = BackendBase(none, address=none)
id = 159
timecol 'time/s' for: 'Ewe/V' and 'raw_current' and 'selector'
timecol 'C0M2 time [s]' for: 'M2'
timecol 'C6M44 time [s]' for: 'M44'
timecol 'C3M28 time [s]' for: 'M28'
timecol 'C1M4 time [s]' for: 'M4'
timecol 'C5M40 time [s]' for: 'M40'
timecol 'C4M32 time [s]' for: 'M32'
timecol 'C2M18 time [s]' for: 'M18'
aliases = {"M2": ["M2 [A]"], "M4": ["M4 [A]"], "M18": ["M18 [A]"], "M28": ["M28 [A]"], "M32": ["M32 [A]"], "M40": ["M40 [A]"], "M44": ["M44 [A]"], "t": ["time/s"], "raw_potential": ["Ewe/V"], "raw_current": ["<I>/mA", "I/mA"], "cycle": ["cycle number"]}
N_header_lines = 18

time/s,	Ewe/V,	raw_current,	selector,	C0M2 time [s],	M2,	C6M44 time [s],	M44,	C3M28 time [s],	M28,	C1M4 time [s],	M4,	C5M40 time [s],	M40,	C4M32 time [s],	M32,	C2M18 time [s],	M18
32.0,	0.938832,	-0.000128876,	0,	0.519806,	9.040636e-12,	0.966725,	5.32006e-13,	0.742765,	2.017622e-12,	0.593792,	5.223712e-10,	0.891739,	7.675531e-14,	0.817752,	3.232973e-12,	0.668779,	3.312517e-11
85.0522,	1.60107,	0.00382574,	0,	227.516,	8.949434e-12,	227.963,	6.03549e-13,	227.739,	1.990313e-12,	227.59,	5.212327e-10,	227.888,	6.081864e-14,	227.814,	3.252822e-12,	227.665,	3.35909e-11
131.827,	0.665467,	-0.00834047,	0,	454.511,	8.78164e-12,	454.958,	5.648839e-13,	454.734,	2.023575e-12,	454.585,	5.225576e-10,	454.883,	6.867966e-14,	454.809,	3.621926e-12,	454.66,	3.350546e-11
177.946,	0.27753,	0.00358696,	0,	681.507,	9.058703e-12,	681.954,	5.341161e-13,	681.731,	1.992273e-12,	681.582,	5.236684e-10,	681.88,	7.118661e-14,	681.805,	3.290779e-12,	681.656,	3.329987e-11
224.376,	1.20614,	0.00497768,	1,	908.503,	8.884323e-12,	908.949,	5.288632e-13,	908.727,	1.988737e-12,	908.578,	5.228425e-10,	908.875,	8.48553e-14,	908.8,	3.26398e-12,	908.651,	3.346545e-11
270.539,	1.2712,	-0.000352024,	1,	1135.5,	8.92479e-12,	1135.95,	5.191919e-13,	1135.72,	3.001428e-12,	1135.57,	5.201894e-10,	1135.87,	8.704228e-14,	1135.8,	3.436412e-12,	1135.65,	3.332781e-11
317.314,	0.335621,	-0.00212823,	1,	1362.49,	8.907047e-12,	1362.94,	5.246958e-13,	1362.72,	2.00652e-12,	1362.57,	5.22483e-10,	1362.87,	7.547147e-14,	1362.79,	3.810643e-12,	1362.64,	3.317778e-11
363.433,	0.607308,	0.000424652,	1,	1589.49,	8.932966e-12,	1589.94,	5.186856e-13,	1589.71,	1.973651e-12,	1589.57,	5.235831e-10,	1589.86,	5.805653e-14,	1589.79,	3.277989e-12,	1589.64,	3.299684e-11
409.863,	1.536,	0.00850407,	2,	1816.49,	8.890944e-12,	1816.93,	5.117682e-13,	1816.71,	1.975724e-12,	1816.56,	5.212755e-10,	1816.86,	6.67235e-14,	1816.78,	4.293645e-12,	1816.63,	3.302288e-11
456.026,	0.94137,	-0.00217252,	2,	2043.48,	8.697975e-12,	2043.93,	5.109947e-13,	2043.71,	2.00309e-12,	2043.56,	5.248912e-10,	2043.86,	8.069188e-14,	2043.78,	4.540795e-12,	2043.63,	3.346029e-11
502.572,	0.01038109,	-0.158054,	2,	2270.48,	8.922158e-12,	2270.93,	5.004242e-13,	2270.7,	1.968754e-12,	2270.55,	5.250458e-10,	2270.85,	6.911703e-14,	2270.78,	3.303824e-12,	2270.63,	3.310423e-11
548.89,	0.936572,	0.00463533,	2,	2497.47,	8.561786e-12,	2497.92,	5.140444e-13,	2497.7,	2.001199e-12,	2497.55,	5.234657e-10,	2497.85,	9.193869e-14,	2497.77,	5.796683e-12,	2497.62,	3.348875e-11
594.738,	1.54712,	0.000769956,	3,	2724.47,	8.661314e-12,	2724.92,	4.990715e-13,	2724.69,	2.000952e-12,	2724.55,	5.295749e-10,	2724.84,	7.204112e-14,	2724.77,	3.541615e-12,	2724.62,	3.36372e-11
641.513,	0.61149,	-0.0025412,	3,	2951.47,	8.869188e-12,	2951.91,	4.850383e-13,	2951.69,	1.989981e-12,	2951.54,	5.255227e-10,	2951.84,	8.473783e-14,	2951.76,	3.331287e-12,	2951.62,	3.313009e-11
687.632,	0.331505,	0.00303439,	3,	3178.46,	8.205541e-12,	3178.91,	5.12805e-13,	3178.69,	1.980001e-12,	3178.54,	5.245293e-10,	3178.84,	8.195143e-14,	3178.76,	7.338504e-12,	3178.61,	3.397361e-11
734.062,	1.26008,	0.00463774,	4,	3405.46,	8.66061e-12,	3405.91,	5.041502e-13,	3405.68,	1.971946e-12,	3405.53,	5.278633e-10,	3405.83,	7.177382e-14,	3405.76,	3.455779e-12,	3405.61,	3.341315e-11
780.225,	1.21721,	-0.000462279,	4,	3632.45,	8.283102e-12,	3632.9,	5.144534e-13,	3632.68,	2.013806e-12,	3632.53,	5.202018e-10,	3632.83,	6.182706e-14,	3632.75,	8.248418e-12,	3632.6,	3.378026e-11
827,	0.281581,	-0.00393508,	4,	3859.45,	7.925318e-12,	3859.9,	5.111081e-13,	3859.67,	1.97278e-12,	3859.53,	5.24925e-10,	3859.82,	7.348291e-14,	3859.75,	8.903389e-12,	3859.6,	3.42931e-11
873.119,	0.66124,	0.000500825,	4,	4086.45,	8.620636e-12,	4086.89,	4.983425e-13,	4086.67,	1.934483e-12,	4086.52,	5.302271e-10,	4086.82,	6.962731e-14,	4086.74,	3.469946e-12,	4086.6,	3.348145e-11
998.869,	0.89217,	2.31289e-06,	5,	4313.44,	8.749163e-12,	4313.89,	4.920529e-13,	4313.67,	1.964303e-12,	4313.52,	5.290491e-10,	4313.82,	7.966724e-14,	4313.74,	3.369535e-12,	4313.59,	3.307752e-11
1154.87,	0.916742,	2.54329e-06,	5,	4540.44,	8.819016e-12,	4540.88,	5.09322e-13,	4540.66,	1.951603e-12,	4540.51,	5.278763e-10,	4540.81,	5.831571e-14,	4540.74,	3.329651e-12,	4540.59,	3.275385e-11
1302.46,	1.57176,	0.00250347,	6,	4767.43,	8.613148e-12,	4767.88,	4.847629e-13,	4767.66,	1.923059e-12,	4767.51,	5.26584e-10,	4767.81,	8.083362e-14,	4767.73,	4.398928e-12,	4767.58,	3.317657e-11
1458.46,	1.6016,	0.00250397,	6,	4994.43,	1.044916e-11,	4994.875,	4.880069e-13,	4994.65,	1.923306e-12,	4994.5,	5.282477e-10,	4994.8,	8.372126e-14,	4994.73,	3.304447e-12,	4994.58,	3.298304e-11
1607.43,	1.36967,	2.40749e-06,	7,	5221.43,	8.89241e-12,	5221.87,	4.796033e-13,	5221.65,	1.903999e-12,	5221.5,	5.259566e-10,	5221.8,	7.421595e-14,	5221.72,	3.286162e-12,	5221.58,	3.268273e-11
1763.43,	1.31472,	2.36896e-06,	7,	5448.42,	8.890767e-12,	5448.87,	4.840826e-13,	5448.64,	1.923868e-12,	5448.5,	5.262786e-10,	5448.79,	7.901924e-14,	5448.72,	3.758123e-12,	5448.57,	3.254409e-11
1890.46,	1.64185,	0.00500368,	8,	5675.42,	8.859176e-12,	5675.87,	4.747676e-13,	5675.64,	1.871462e-12,	5675.49,	5.274192e-10,	5675.79,	6.639948e-14,	5675.72,	3.331967e-12,	5675.57,	3.250343e-11
2046.46,	1.65413,	0.00500387,	8,	5902.41,	8.945612e-12,	5902.86,	4.722161e-13,	5902.64,	1.890942e-12,	5902.49,	5.262323e-10,	5902.79,	7.249876e-14,	5902.71,	3.266673e-12,	5902.56,	3.227494e-11
2193.25,	1.42791,	2.3064e-06,	9,	6129.41,	8.709493e-12,	6129.86,	4.926402e-13,	6129.63,	1.877962e-12,	6129.48,	5.272823e-10,	6129.78,	7.905568e-14,	6129.71,	4.488031e-12,	6129.56,	3.300441e-11
2349.25,	1.38373,	2.32509e-06,	9,	6356.4,	8.866499e-12,	6356.85,	4.705231e-13,	6356.63,	1.88643e-12,	6356.48,	5.286497e-10,	6356.78,	7.767463e-14,	6356.7,	3.301641e-12,	6356.55,	3.245743e-11
2476.98,	1.68703,	0.010004,	10,	6583.4,	8.658406e-12,	6583.85,	4.679271e-13,	6583.62,	1.945832e-12,	6583.47,	5.238539e-10,	6583.77,	6.101703e-14,	6583.7,	5.590267e-12,	6583.55,	3.247282e-11
2632.98,	1.69809,	0.0100041,	10,	6810.4,	8.412284e-12,	6810.84,	4.732448e-13,	6810.62,	1.973165e-12,	6810.47,	5.297397e-10,	6810.77,	5.865588e-14,	6810.69,	5.946637e-12,	6810.55,	3.296492e-11
2776.9,	1.45495,	2.29954e-06,	11,	7037.39,	8.803764e-12,	7037.84,	4.680527e-13,	7037.62,	1.878565e-12,	7037.47,	5.307877e-10,	7037.77,	5.932818e-14,	7037.69,	3.331117e-12,	7037.54,	3.240401e-11
[...]
3215.61,	1.727627,	0.0150045,	12,	7718.38,	8.791914e-12,	7718.83,	4.411041e-13,	7718.6,	1.883547e-12,	7718.45,	5.320493e-10,	7718.75,	7.035224e-14,	7718.68,	3.34666e-12,	7718.53,	3.245137e-11
3358.26,	1.475657,	2.26864e-06,	13,	7945.38,	7.993359e-12,	7945.82,	4.789998e-13,	7945.6,	1.926157e-12,	7945.45,	5.301312e-10,	7945.75,	6.74565e-14,	7945.67,	8.798982e-12,	7945.53,	3.35897e-11
3514.26,	1.43273,	2.16488e-06,	13,	8172.37,	8.491134e-12,	8172.82,	4.794695e-13,	8172.6,	1.969443e-12,	8172.45,	5.34693e-10,	8172.74,	6.711629e-14,	8172.67,	3.544579e-12,	8172.52,	3.309012e-11
3640.69,	1.740028,	0.0200044,	14,	8399.37,	8.715082e-12,	8399.81,	4.442347e-13,	8399.59,	1.873361e-12,	8399.44,	5.322369e-10,	8399.74,	5.786613e-14,	8399.66,	3.330854e-12,	8399.52,	3.238672e-11
3796.69,	1.75014,	0.0200048,	14,	8626.36,	8.825594e-12,	8626.81,	4.417845e-13,	8626.59,	1.823996e-12,	8626.44,	5.30801e-10,	8626.74,	7.92622e-14,	8626.66,	3.281537e-12,	8626.51,	3.207784e-11
3938.08,	1.49607,	2.07028e-06,	15,	,	,	,	,	,	,	,	,	,	,	,	,	,
4094.08,	1.44645,	2.29992e-06,	15,	,	,	,	,	,	,	,	,	,	,	,	,	,
4211.98,	1.21324,	0.00078163,	16,	,	,	,	,	,	,	,	,	,	,	,	,	,
4258.38,	1.25974,	-0.000295573,	16,	,	,	,	,	,	,	,	,	,	,	,	,	,
4305.16,	0.324185,	-0.0037001,	16,	,	,	,	,	,	,	,	,	,	,	,	,	,
4351.29,	0.619584,	0.000329716,	16,	,	,	,	,	,	,	,	,	,	,	,	,	,
4398.06,	1.55508,	0.0101999,	17,	,	,	,	,	,	,	,	,	,	,	,	,	,
4444.47,	0.917894,	-0.00257974,	17,	,	,	,	,	,	,	,	,	,	,	,	,	,
4490.6,	0.0260635,	0.0212139,	17,	,	,	,	,	,	,	,	,	,	,	,	,	,
4537.38,	0.961357,	0.00442492,	18,	,	,	,	,	,	,	,	,	,	,	,	,	,
4583.78,	1.51165,	0.000164314,	18,	,	,	,	,	,	,	,	,	,	,	,	,	,
4630.55,	0.576071,	-0.00185414,	18,	,	,	,	,	,	,	,	,	,	,	,	,	,
4676.69,	0.367712,	0.000836317,	18,	,	,	,	,	,	,	,	,	,	,	,	,	,
4723.46,	1.30318,	0.00456985,	19,	,	,	,	,	,	,	,	,	,	,	,	,	,
4769.86,	1.16974,	-0.000582115,	19,	,	,	,	,	,	,	,	,	,	,	,	,	,
4816.64,	0.234241,	-0.00343968,	19,	,	,	,	,	,	,	,	,	,	,	,	,	,
4862.77,	0.709522,	0.000575836,	19,	,	,	,	,	,	,	,	,	,	,	,	,	,
4909.55,	1.64502,	0.0433931,	20,	,	,	,	,	,	,	,	,	,	,	,	,	,
4955.95,	0.8279174,	-0.00644848,	20,	,	,	,	,	,	,	,	,	,	,	,	,	,
5002.08,	0.115975,	0.00628441,	20,	,	,	,	,	,	,	,	,	,	,	,	,	,
5064.15,	0.877583,	2.548245e-06,	21,	,	,	,	,	,	,	,	,	,	,	,	,	,
5220.15,	0.913155,	2.262917e-06,	21,	,	,	,	,	,	,	,	,	,	,	,	,	,
5367.2,	1.25797,	0.00250309,	22,	,	,	,	,	,	,	,	,	,	,	,	,	,
5523.19,	1.5895,	0.0025034,	22,	,	,	,	,	,	,	,	,	,	,	,	,	,
5671.8,	1.44768,	2.19769e-06,	23,	,	,	,	,	,	,	,	,	,	,	,	,	,
5827.8,	1.3679,	2.35675e-06,	23,	,	,	,	,	,	,	,	,	,	,	,	,	,
5957.2,	1.62579,	0.00500406,	24,	,	,	,	,	,	,	,	,	,	,	,	,	,
6113.2,	1.64843,	0.00500429,	24,	,	,	,	,	,	,	,	,	,	,	,	,	,
6259.62,	1.49447,	2.192729e-06,	25,	,	,	,	,	,	,	,	,	,	,	,	,	,
6415.62,	1.415906,	2.24766e-06,	25,	,	,	,	,	,	,	,	,	,	,	,	,	,
6544.47,	1.66787,	0.0100039,	26,	,	,	,	,	,	,	,	,	,	,	,	,	,
6700.47,	1.693064,	0.0100038,	26,	,	,	,	,	,	,	,	,	,	,	,	,	,
6845.18,	1.56065,	2.29954e-06,	27,	,	,	,	,	,	,	,	,	,	,	,	,	,
7001.18,	1.43841,	2.42618e-06,	27,	,	,	,	,	,	,	,	,	,	,	,	,	,
7141.52,	1.55187,	0.0150038,	28,	,	,	,	,	,	,	,	,	,	,	,	,	,
7284.17,	1.72319,	0.0150048,	28,	,	,	,	,	,	,	,	,	,	,	,	,	,
7440.17,	1.731352,	0.01500397,	28,	,	,	,	,	,	,	,	,	,	,	,	,	,
7582.57,	1.45493,	2.29e-06,	29,	,	,	,	,	,	,	,	,	,	,	,	,	,
7738.57,	1.42542,	2.56541e-06,	29,	,	,	,	,	,	,	,	,	,	,	,	,	,
7865.14,	1.74619,	0.0200042,	30,	,	,	,	,	,	,	,	,	,	,	,	,	,
8021.14,	1.7538,	0.0200048,	30,	,	,	,	,	,	,	,	,	,	,	,	,	,
8162.35,	1.46994,	2.28352e-06,	31,	,	,	,	,	,	,	,	,	,	,	,	,	,
8318.35,	1.439218,	2.3106e-06,	31,	,	,	,	,	,	,	,	,	,	,	,	,	,
8341.41,	1.43605,	2.37812e-06,	31,	,	,	,	,	,	,	,	,	,	,	,	,	,