Folder: application-notes-data/Quantification/development/HER + OER repeatability multiple MS

Note: README.md
# application-notes-data
This repository contains code and data to reproduce the data treatment and figure in our application notes

File: HERonPt_RnD1_newMS_nonaqu.csv
ixdat version = 0.2.2dev
name = 2022-04-07 13_20_11 HER on Pt repeatability non-aqu.tsv
technique = EC-MS
tstamp = 1649330411.0
backend_name = BackendBase(none, address=none)
id = 1
timecol 'time/s' for: 'Ewe/V' and 'I/mA' and 'selector'
timecol 'M40-x' for: 'M40'
timecol 'M28-x' for: 'M28'
timecol 'M18-x' for: 'M18'
timecol 'M4-x' for: 'M4'
timecol 'M32-x' for: 'M32'
timecol 'M44-x' for: 'M44'
timecol 'M2-x' for: 'M2'
aliases = {"t": ["time/s"], "raw_potential": ["Ewe/V", "<Ewe>/V"], "raw_current": ["I/mA", "<I>/mA"], "cycle": ["cycle number"]}
N_header_lines = 18

time/s,	Ewe/V,	I/mA,	selector,	M40-x,	M40,	M28-x,	M28,	M18-x,	M18,	M4-x,	M4,	M32-x,	M32,	M44-x,	M44,	M2-x,	M2
336.708,	0.9296044,	-0.0002409944,	0,	0.912514,	9.146161e-10,	0.763584,	8.312599e-08,	0.689619,	2.575452e-09,	0.614655,	4.239637e-09,	0.838549,	2.240594e-08,	0.987478,	1.425246e-10,	0.540689,	1.877197e-09
380.968,	1.6295,	0.03491049,	0,	157.333,	8.850111e-10,	157.184,	7.943709e-08,	157.109,	2.239882e-09,	157.035,	5.645054e-09,	157.258,	2.153399e-08,	157.407,	1.391895e-10,	156.96,	1.843003e-09
426.281,	0.8651696,	-0.006225987,	0,	313.753,	8.5687e-12,	313.604,	5.107675e-10,	313.53,	4.880711e-09,	313.455,	4.904993e-08,	313.679,	3.53031e-10,	313.828,	7.083772e-11,	313.381,	2.24564e-09
471.62,	0.06279178,	0.01455869,	0,	470.172,	6.250105e-12,	470.023,	3.602549e-10,	469.948,	4.930131e-09,	469.874,	4.94492e-08,	470.097,	2.74665e-10,	470.246,	6.160333e-11,	469.799,	4.543138e-09
517.114,	0.9727824,	0.003116999,	1,	626.594,	4.84035e-12,	626.445,	3.137825e-10,	626.37,	4.880942e-09,	626.296,	4.920912e-08,	626.519,	2.568947e-10,	626.668,	7.230932e-11,	626.221,	2.429556e-09
562.529,	1.519878,	-0.006059557,	1,	783.013,	4.854547e-12,	782.864,	2.910485e-10,	782.79,	4.853863e-09,	782.715,	4.929279e-08,	782.939,	2.495405e-10,	783.088,	7.404637e-11,	782.641,	2.445889e-09
608.142,	0.6074957,	-0.003851305,	1,	939.434,	4.61432e-12,	939.286,	2.7354e-10,	939.211,	4.816841e-09,	939.136,	4.918364e-08,	939.359,	2.533946e-10,	939.509,	7.067227e-11,	939.062,	2.454185e-09
653.17,	0.3142844,	0.003730806,	1,	1095.85,	4.482457e-12,	1095.7,	2.708743e-10,	1095.63,	4.718523e-09,	1095.56,	4.951725e-08,	1095.78,	2.560449e-10,	1095.93,	7.031589e-11,	1095.48,	2.466803e-09
698.217,	1.215083,	0.007025052,	2,	1252.27,	4.541653e-12,	1252.125,	2.638473e-10,	1252.05,	4.725036e-09,	1251.98,	4.864522e-08,	1252.2,	3.157685e-10,	1252.35,	7.620224e-11,	1251.9,	2.449451e-09
743.555,	1.278907,	0.001630962,	2,	1408.69,	4.149541e-12,	1408.55,	2.528828e-10,	1408.47,	4.672087e-09,	1408.4,	4.909635e-08,	1408.62,	2.322789e-10,	1408.77,	5.354846e-11,	1408.32,	2.485328e-09
789.115,	0.3676285,	-4.135474e-05,	2,	1565.11,	4.190182e-12,	1564.96,	2.474617e-10,	1564.89,	4.684399e-09,	1564.82,	4.886355e-08,	1565.04,	2.28822e-10,	1565.19,	4.924848e-11,	1564.74,	2.485359e-09
834.585,	0.5627933,	0.000267457,	2,	1721.53,	4.147918e-12,	1721.38,	2.452609e-10,	1721.31,	4.656124e-09,	1721.24,	4.892899e-08,	1721.46,	2.243904e-10,	1721.61,	4.678464e-11,	1721.16,	2.624989e-09
880.229,	1.475913,	0.01453196,	3,	1877.95,	4.222741e-12,	1877.81,	2.392642e-10,	1877.73,	4.636812e-09,	1877.66,	4.871431e-08,	1877.88,	2.213151e-10,	1878.03,	4.617275e-11,	1877.58,	3.249506e-09
925.164,	1.026482,	-0.001266295,	3,	2034.37,	3.869131e-12,	2034.22,	2.361097e-10,	2034.15,	4.573839e-09,	2034.08,	4.873982e-08,	2034.3,	2.210353e-10,	2034.45,	4.553559e-11,	2034,	2.493244e-09
970.328,	0.1230241,	-0.01375008,	3,	2190.8,	4.144959e-12,	2190.65,	2.339182e-10,	2190.57,	4.560664e-09,	2190.5,	4.836144e-08,	2190.72,	2.184159e-10,	2190.87,	4.442829e-11,	2190.42,	2.50138e-09
1015.76,	0.8065801,	0.001672188,	3,	2347.21,	3.940206e-12,	2347.07,	2.336225e-10,	2346.99,	4.566535e-09,	2346.92,	4.878708e-08,	2347.14,	2.162982e-10,	2347.29,	4.49674e-11,	2346.84,	4.153459e-09
1061.08,	1.687666,	0.07245421,	4,	2503.63,	3.904708e-12,	2503.49,	2.309109e-10,	2503.41,	4.586458e-09,	2503.34,	4.85652e-08,	2503.56,	2.173846e-10,	2503.71,	4.477031e-11,	2503.26,	4.1788e-09
1105.97,	0.7898086,	-0.01346264,	4,	2660.05,	4.012567e-12,	2659.9,	2.304492e-10,	2659.83,	4.577771e-09,	2659.76,	4.883075e-08,	2659.98,	2.13588e-10,	2660.13,	4.434468e-11,	2659.68,	2.519728e-09
1151.77,	0.1472033,	0.006860149,	4,	2816.47,	3.937009e-12,	2816.33,	2.279584e-10,	2816.25,	4.451203e-09,	2816.18,	4.852516e-08,	2816.4,	2.155803e-10,	2816.55,	4.482694e-11,	2816.1,	2.51235e-09
1197.64,	1.064823,	0.006253977,	5,	2972.89,	4.096556e-12,	2972.75,	2.290095e-10,	2972.67,	4.559044e-09,	2972.6,	4.922335e-08,	2972.82,	2.121885e-10,	2972.97,	4.371943e-11,	2972.52,	5.976236e-09
1243.04,	1.428276,	-0.0006574513,	5,	3129.31,	3.926785e-12,	3129.16,	2.256065e-10,	3129.09,	4.503044e-09,	3129.02,	4.849606e-08,	3129.24,	2.124016e-10,	3129.39,	4.362572e-11,	3128.94,	6.014181e-09
1288.49,	0.5190498,	-0.001364016,	5,	3285.73,	3.571895e-12,	3285.59,	2.239459e-10,	3285.51,	4.481323e-09,	3285.44,	4.826319e-08,	3285.66,	2.100805e-10,	3285.81,	4.311327e-11,	3285.36,	2.508332e-09
1333.49,	0.4021076,	-0.0006910427,	5,	3442.15,	3.914974e-12,	3442.01,	2.220701e-10,	3441.93,	4.456819e-09,	3441.86,	4.854378e-08,	3442.08,	2.098854e-10,	3442.23,	4.250303e-11,	3441.78,	2.491583e-09
1378.75,	0.8723978,	1.703661e-06,	6,	3598.58,	3.960201e-12,	3598.43,	2.211488e-10,	3598.35,	4.476184e-09,	3598.28,	4.807768e-08,	3598.5,	2.129188e-10,	3598.65,	4.253638e-11,	3598.2,	7.752812e-09
1424.3,	0.8618345,	1.665515e-06,	6,	3755,	3.587465e-12,	3754.85,	2.18706e-10,	3754.77,	4.524757e-09,	3754.7,	4.821597e-08,	3754.92,	2.069859e-10,	3755.07,	4.300338e-11,	3754.62,	7.776777e-09
1469.54,	0.8629308,	1.779952e-06,	6,	3911.41,	3.890687e-12,	3911.27,	2.201155e-10,	3911.19,	4.469361e-09,	3911.12,	4.8085e-08,	3911.34,	2.081267e-10,	3911.49,	4.213997e-11,	3911.04,	2.511661e-09
1514.84,	0.8664685,	1.932533e-06,	6,	4067.84,	3.659806e-12,	4067.69,	2.190967e-10,	4067.61,	4.408463e-09,	4067.54,	4.795402e-08,	4067.76,	2.090961e-10,	4067.91,	4.21564e-11,	4067.46,	6.492879e-09
1560.29,	0.870438,	1.589224e-06,	6,	4224.26,	3.898199e-12,	4224.11,	2.181273e-10,	4224.03,	4.510561e-09,	4223.96,	4.813229e-08,	4224.18,	2.081038e-10,	4224.33,	4.200377e-11,	4223.88,	9.464879e-09
1605.87,	0.8741629,	1.703661e-06,	6,	4380.67,	3.977991e-12,	4380.53,	2.164648e-10,	4380.45,	4.429839e-09,	4380.38,	4.778668e-08,	4380.6,	2.049397e-10,	4380.75,	4.193108e-11,	4380.3,	2.805109e-09
1651.39,	0.8771963,	1.360351e-06,	6,	4537.1,	3.552501e-12,	4536.95,	2.179083e-10,	4536.87,	4.416171e-09,	4536.8,	4.781572e-08,	4537.02,	2.076605e-10,	4537.17,	4.088921e-11,	4536.72,	2.509372e-09
1696.99,	0.1322923,	-0.00249793,	6,	4693.52,	3.628293e-12,	4693.37,	2.163333e-10,	4693.29,	4.380709e-09,	4693.22,	4.774298e-08,	4693.44,	2.065669e-10,	4693.59,	4.176934e-11,	4693.14,	2.516045e-09
1742.52,	0.0491377,	-0.002497739,	6,	,	,	,	,	,	,	,	,	,	,	,	,	,
1787.92,	0.04697536,	-0.002497816,	6,	,	,	,	,	,	,	,	,	,	,	,	,	,
1833.3,	0.04650545,	-0.002498388,	6,	,	,	,	,	,	,	,	,	,	,	,	,	,
1878.55,	0.04626858,	-0.002497777,	6,	,	,	,	,	,	,	,	,	,	,	,	,	,
1923.54,	0.04613105,	-0.002497663,	6,	,	,	,	,	,	,	,	,	,	,	,	,	,
1968.91,	0.06890441,	1.551079e-06,	6,	,	,	,	,	,	,	,	,	,	,	,	,	,
2014.22,	0.1066766,	2.008824e-06,	6,	,	,	,	,	,	,	,	,	,	,	,	,	,
2059.78,	0.1307451,	2.085115e-06,	6,	,	,	,	,	,	,	,	,	,	,	,	,	,
2105.14,	0.1549473,	2.504715e-06,	6,	,	,	,	,	,	,	,	,	,	,	,	,	,
2150.4,	0.1829966,	2.313988e-06,	6,	,	,	,	,	,	,	,	,	,	,	,	,	,
2195.78,	0.2147135,	2.123261e-06,	6,	,	,	,	,	,	,	,	,	,	,	,	,	,
2241.15,	0.2468735,	2.046969e-06,	6,	,	,	,	,	,	,	,	,	,	,	,	,	,
2286.4,	0.03847498,	-0.004997564,	6,	,	,	,	,	,	,	,	,	,	,	,	,	,
2331.9,	0.03645018,	-0.004998632,	6,	,	,	,	,	,	,	,	,	,	,	,	,	,
2377.28,	0.03627444,	-0.004998403,	6,	,	,	,	,	,	,	,	,	,	,	,	,	,
2422.67,	0.03622095,	-0.004998327,	6,	,	,	,	,	,	,	,	,	,	,	,	,	,
2467.92,	0.03610252,	-0.004998326,	6,	,	,	,	,	,	,	,	,	,	,	,	,	,
2513.53,	0.03609488,	-0.004997754,	6,	,	,	,	,	,	,	,	,	,	,	,	,	,
2558.86,	0.03608724,	-0.004998098,	6,	,	,	,	,	,	,	,	,	,	,	,	,	,
2604.21,	0.0933129,	2.313988e-06,	6,	,	,	,	,	,	,	,	,	,	,	,	,	,
2649.49,	0.1152305,	1.856243e-06,	6,	,	,	,	,	,	,	,	,	,	,	,	,	,
2694.73,	0.1342675,	2.123261e-06,	6,	,	,	,	,	,	,	,	,	,	,	,	,	,
2740.16,	0.1543666,	1.589224e-06,	6,	,	,	,	,	,	,	,	,	,	,	,	,	,
2785.45,	0.1770903,	2.237697e-06,	6,	,	,	,	,	,	,	,	,	,	,	,	,	,
2830.9,	0.2030919,	2.504715e-06,	6,	,	,	,	,	,	,	,	,	,	,	,	,	,
2876.35,	0.02864511,	-0.009997937,	6,	,	,	,	,	,	,	,	,	,	,	,	,	,
2921.72,	0.02764799,	-0.009998127,	6,	,	,	,	,	,	,	,	,	,	,	,	,	,
2967.09,	0.0275563,	-0.009997631,	6,	,	,	,	,	,	,	,	,	,	,	,	,	,
3012.37,	0.02758687,	-0.009998394,	6,	,	,	,	,	,	,	,	,	,	,	,	,	,
3057.66,	0.02753338,	-0.009997937,	6,	,	,	,	,	,	,	,	,	,	,	,	,	,
3102.81,	0.02752192,	-0.009997899,	6,	,	,	,	,	,	,	,	,	,	,	,	,	,
3147.86,	0.02748754,	-0.009997822,	6,	,	,	,	,	,	,	,	,	,	,	,	,	,
3193.01,	0.08233309,	2.275842e-06,	6,	,	,	,	,	,	,	,	,	,	,	,	,	,
3238.41,	0.1039603,	2.199552e-06,	6,	,	,	,	,	,	,	,	,	,	,	,	,	,
3283.74,	0.1214921,	1.665515e-06,	6,	,	,	,	,	,	,	,	,	,	,	,	,	,
3329.32,	0.1381834,	2.199551e-06,	6,	,	,	,	,	,	,	,	,	,	,	,	,	,
3375.02,	0.1562882,	2.008824e-06,	6,	,	,	,	,	,	,	,	,	,	,	,	,	,
3420.57,	0.1765096,	1.62737e-06,	6,	,	,	,	,	,	,	,	,	,	,	,	,	,
3465.96,	0.03026878,	-0.01499762,	6,	,	,	,	,	,	,	,	,	,	,	,	,	,
3511.63,	0.02299858,	-0.01499766,	6,	,	,	,	,	,	,	,	,	,	,	,	,	,
3557.16,	0.02289543,	-0.01499797,	6,	,	,	,	,	,	,	,	,	,	,	,	,	,
3602.8,	0.0228916,	-0.01499789,	6,	,	,	,	,	,	,	,	,	,	,	,	,	,
3648.31,	0.02288778,	-0.01499774,	6,	,	,	,	,	,	,	,	,	,	,	,	,	,
3693.61,	0.02284576,	-0.0149977,	6,	,	,	,	,	,	,	,	,	,	,	,	,	,
3739.03,	0.02286104,	-0.01499789,	6,	,	,	,	,	,	,	,	,	,	,	,	,	,
3784.15,	0.07370282,	1.665515e-06,	6,	,	,	,	,	,	,	,	,	,	,	,	,	,
3829.42,	0.09621639,	1.818097e-06,	6,	,	,	,	,	,	,	,	,	,	,	,	,	,
3874.57,	0.1127128,	1.932533e-06,	6,	,	,	,	,	,	,	,	,	,	,	,	,	,
3919.9,	0.1280555,	2.04697e-06,	6,	,	,	,	,	,	,	,	,	,	,	,	,	,
3965.35,	0.1435663,	1.779952e-06,	6,	,	,	,	,	,	,	,	,	,	,	,	,	,
4010.48,	0.1603493,	2.046969e-06,	6,	,	,	,	,	,	,	,	,	,	,	,	,	,
4055.99,	0.178947,	2.504715e-06,	6,	,	,	,	,	,	,	,	,	,	,	,	,	,
4101.19,	0.01987349,	-0.01999746,	6,	,	,	,	,	,	,	,	,	,	,	,	,	,
4146.43,	0.01974742,	-0.01999788,	6,	,	,	,	,	,	,	,	,	,	,	,	,	,
4191.66,	0.01977799,	-0.0199983,	6,	,	,	,	,	,	,	,	,	,	,	,	,	,
4236.95,	0.01981237,	-0.01999792,	6,	,	,	,	,	,	,	,	,	,	,	,	,	,
4282.14,	0.01976652,	-0.01999796,	6,	,	,	,	,	,	,	,	,	,	,	,	,	,
4327.39,	0.01979709,	-0.01999792,	6,	,	,	,	,	,	,	,	,	,	,	,	,	,
4372.95,	0.05964378,	1.28406e-06,	6,	,	,	,	,	,	,	,	,	,	,	,	,	,
4418.18,	0.08790703,	2.046969e-06,	6,	,	,	,	,	,	,	,	,	,	,	,	,	,
4463.6,	0.1043156,	2.390279e-06,	6,	,	,	,	,	,	,	,	,	,	,	,	,	,
4508.74,	0.1188216,	2.04697e-06,	6,	,	,	,	,	,	,	,	,	,	,	,	,	,
4554.18,	0.13298,	1.665515e-06,	6,	,	,	,	,	,	,	,	,	,	,	,	,	,
4599.08,	0.1474135,	1.703661e-06,	6,	,	,	,	,	,	,	,	,	,	,	,	,	,
4644.41,	0.1633827,	2.313988e-06,	6,	,	,	,	,	,	,	,	,	,	,	,	,	,
4659.85,	0.1692241,	2.390279e-06,	6,	,	,	,	,	,	,	,	,	,	,	,	,	,

File: OERonPt_RnD1_2ndMS.csv
ixdat version = 0.2.2dev
name = 2022-03-30 12_51_35 OER on Pt repeatability.tsv
technique = EC-MS
tstamp = 1648637495.0
backend_name = BackendBase(none, address=none)
id = 1
timecol 'time/s' for: 'Ewe/V' and 'I/mA' and 'selector'
timecol 'M40-x' for: 'M40'
timecol 'M28-x' for: 'M28'
timecol 'M18-x' for: 'M18'
timecol 'M4-x' for: 'M4'
timecol 'M32-x' for: 'M32'
timecol 'M44-x' for: 'M44'
timecol 'M2-x' for: 'M2'
aliases = {"t": ["time/s"], "raw_potential": ["Ewe/V", "<Ewe>/V"], "raw_current": ["I/mA", "<I>/mA"], "cycle": ["cycle number"]}
N_header_lines = 18

time/s,	Ewe/V,	I/mA,	selector,	M40-x,	M40,	M28-x,	M28,	M18-x,	M18,	M4-x,	M4,	M32-x,	M32,	M44-x,	M44,	M2-x,	M2
97.0336,	0.8719344,	0.0001199297,	0,	0.920974,	3.406429e-12,	0.772048,	1.874691e-10,	0.697085,	3.288826e-09,	0.623122,	4.181314e-08,	0.846011,	1.168593e-10,	0.994937,	4.307108e-11,	0.548159,	8.507916e-10
139.058,	1.526284,	0.01181297,	0,	156.79,	3.376427e-12,	156.641,	1.849054e-10,	156.567,	3.111593e-09,	156.492,	3.893921e-08,	156.716,	3.65796e-10,	156.865,	6.844091e-11,	156.418,	8.203305e-10
181.636,	1.023165,	-0.0008689244,	0,	312.659,	3.291752e-12,	312.51,	1.816716e-10,	312.436,	3.114102e-09,	312.361,	3.911199e-08,	312.585,	1.170587e-10,	312.734,	5.917886e-11,	312.287,	8.312128e-10
223.913,	0.177475,	-0.003425687,	0,	468.53,	3.165e-12,	468.381,	1.78735e-10,	468.307,	3.093947e-09,	468.232,	3.901014e-08,	468.456,	1.10702e-10,	468.605,	5.123665e-11,	468.158,	8.327045e-10
266.811,	0.6914514,	0.000924016,	0,	624.4,	3.138122e-12,	624.251,	1.77714e-10,	624.177,	3.093396e-09,	624.102,	3.895556e-08,	624.326,	1.105538e-10,	624.475,	4.739304e-11,	624.028,	8.284696e-10
309.551,	1.546402,	0.009464244,	1,	780.27,	3.068993e-12,	780.121,	1.771355e-10,	780.047,	3.105863e-09,	779.972,	3.895556e-08,	780.196,	1.102906e-10,	780.345,	4.479688e-11,	779.898,	8.324919e-10
352.466,	0.9961123,	-0.0007074567,	1,	936.139,	3.398594e-12,	935.99,	1.77683e-10,	935.915,	3.085299e-09,	935.841,	3.885186e-08,	936.064,	1.092021e-10,	936.213,	4.449555e-11,	935.766,	9.277735e-10
395.098,	0.143546,	-0.003000832,	1,	1092.01,	3.028617e-12,	1091.86,	1.756793e-10,	1091.79,	3.068862e-09,	1091.71,	3.862445e-08,	1091.93,	1.083696e-10,	1092.08,	3.985515e-11,	1091.64,	8.232584e-10
437.767,	0.7208226,	0.0006518494,	1,	1247.88,	3.197456e-12,	1247.73,	1.752088e-10,	1247.65,	3.05024e-09,	1247.58,	3.844254e-08,	1247.8,	1.07253e-10,	1247.95,	4.250172e-11,	1247.51,	8.229401e-10
480.853,	1.582672,	0.01330473,	2,	1403.75,	2.875731e-12,	1403.6,	1.676894e-10,	1403.52,	3.024002e-09,	1403.45,	3.82352e-08,	1403.67,	1.072661e-10,	1403.82,	4.44666e-11,	1403.375,	8.164739e-10
523.189,	0.9715282,	-0.001485784,	2,	1559.62,	2.872079e-12,	1559.47,	1.650974e-10,	1559.39,	3.04281e-09,	1559.32,	3.822064e-08,	1559.54,	1.074554e-10,	1559.69,	4.132826e-11,	1559.24,	8.125376e-10
566.182,	0.1115656,	-0.008140314,	2,	1715.49,	2.881052e-12,	1715.34,	1.625237e-10,	1715.26,	3.019185e-09,	1715.19,	3.788413e-08,	1715.41,	1.073216e-10,	1715.56,	3.847745e-11,	1715.11,	8.081179e-10
608.88,	0.7535748,	-0.0007051664,	2,	1871.36,	2.904242e-12,	1871.21,	1.640365e-10,	1871.13,	2.98843e-09,	1871.06,	3.768039e-08,	1871.28,	2.303802e-10,	1871.43,	4.145399e-11,	1870.98,	7.998343e-10
651.216,	1.600338,	0.01831558,	3,	2027.23,	2.86404e-12,	2027.08,	1.651168e-10,	2027,	2.983323e-09,	2026.93,	3.759309e-08,	2027.15,	2.49372e-10,	2027.3,	3.959085e-11,	2026.85,	7.988056e-10
694.022,	0.9445218,	-0.001594193,	3,	2183.1,	2.872213e-12,	2182.95,	1.646026e-10,	2182.87,	2.974851e-09,	2182.8,	3.764773e-08,	2183.02,	1.138048e-10,	2183.17,	3.862435e-11,	2182.72,	8.051271e-10
736.829,	0.0884369,	-0.00439373,	3,	2338.97,	2.88632e-12,	2338.82,	1.6435e-10,	2338.74,	2.98336e-09,	2338.67,	3.766404e-08,	2338.89,	1.07899e-10,	2339.04,	3.815967e-11,	2338.59,	8.009458e-10
779.68,	0.7795879,	0.0008988224,	3,	2494.84,	2.820257e-12,	2494.69,	1.640106e-10,	2494.61,	2.956569e-09,	2494.54,	3.709286e-08,	2494.76,	3.922156e-10,	2494.91,	3.830721e-11,	2494.46,	7.857262e-10
822.38,	1.633835,	0.02982254,	4,	2650.7,	3.007137e-12,	2650.56,	1.639535e-10,	2650.48,	2.93071e-09,	2650.41,	3.687461e-08,	2650.63,	4.027103e-10,	2650.78,	3.921367e-11,	2650.33,	7.76775e-10
865.029,	0.9139854,	-0.002772945,	4,	2806.57,	2.849889e-12,	2806.42,	1.642484e-10,	2806.35,	2.938768e-09,	2806.28,	3.71238e-08,	2806.5,	1.136614e-10,	2806.65,	3.809761e-11,	2806.2,	7.913821e-10
907.68,	0.0611593,	-0.005782046,	4,	2962.44,	2.869019e-12,	2962.3,	1.592094e-10,	2962.22,	2.925101e-09,	2962.15,	3.695641e-08,	2962.37,	1.086288e-10,	2962.52,	3.695038e-11,	2962.07,	7.877609e-10
950.339,	0.08381423,	1.325301e-06,	5,	3118.31,	2.777662e-12,	3118.16,	1.603528e-10,	3118.09,	2.85639e-09,	3118.02,	3.604508e-08,	3118.24,	5.338285e-10,	3118.39,	3.878293e-11,	3117.94,	7.616577e-10
992.863,	0.1246389,	1.306611e-06,	5,	3274.18,	2.757714e-12,	3274.03,	1.607248e-10,	3273.96,	2.880561e-09,	3273.88,	3.620525e-08,	3274.11,	5.459795e-10,	3274.26,	3.946168e-11,	3273.81,	7.692121e-10
1035.64,	0.1577503,	1.41952e-06,	5,	3430.05,	2.885271e-12,	3429.9,	1.60727e-10,	3429.83,	2.896297e-09,	3429.75,	3.647258e-08,	3429.98,	1.146272e-10,	3430.13,	3.650496e-11,	3429.68,	7.850798e-10
1078.41,	0.1933296,	1.321105e-06,	5,	3585.92,	2.924633e-12,	3585.77,	1.591152e-10,	3585.7,	2.877048e-09,	3585.62,	3.651261e-08,	3585.85,	1.08557e-10,	3586,	3.673236e-11,	3585.55,	7.848537e-10
1121.2,	0.2282747,	1.357726e-06,	5,	3741.79,	2.752902e-12,	3741.64,	1.610058e-10,	3741.57,	2.820824e-09,	3741.49,	3.543577e-08,	3741.72,	6.731437e-10,	3741.87,	3.93599e-11,	3741.42,	7.515177e-10
1163.81,	0.2572256,	1.368025e-06,	5,	3897.66,	2.832997e-12,	3897.51,	1.588775e-10,	3897.44,	2.800755e-09,	3897.36,	3.526845e-08,	3897.59,	6.813349e-10,	3897.74,	3.916078e-11,	3897.29,	7.526606e-10
1206.45,	0.2805606,	1.363066e-06,	5,	4053.53,	2.784929e-12,	4053.38,	1.575716e-10,	4053.31,	2.836904e-09,	4053.23,	3.585233e-08,	4053.46,	1.158284e-10,	4053.61,	3.65319e-11,	4053.16,	7.653843e-10
1249.44,	0.8915139,	0.001001802,	5,	4209.4,	2.896991e-12,	4209.25,	1.558622e-10,	4209.18,	2.812975e-09,	4209.1,	3.56486e-08,	4209.33,	1.069726e-10,	4209.47,	3.668342e-11,	4209.03,	7.642247e-10
1291.95,	1.048738,	0.001002119,	5,	4365.27,	2.860857e-12,	4365.12,	1.555285e-10,	4365.05,	2.826201e-09,	4364.97,	3.571042e-08,	4365.2,	1.059248e-10,	4365.35,	3.597047e-11,	4364.9,	7.604278e-10
1335.12,	1.162181,	0.001001882,	5,	4521.14,	1.883578e-10,	4520.99,	7.514327e-09,	4520.92,	2.820386e-09,	4520.84,	3.393333e-08,	4521.07,	3.066332e-09,	4521.21,	9.605635e-11,	4520.77,	7.511846e-10
1377.91,	1.259437,	0.001001722,	5,	4677.01,	5.31995e-10,	4676.86,	5.462427e-08,	4676.79,	7.757965e-10,	4676.71,	6.024855e-12,	4676.94,	1.048379e-08,	4677.09,	6.997955e-11,	4676.64,	5.031934e-10
1420.84,	1.351134,	0.001001916,	5,	,	,	,	,	,	,	,	,	,	,	,	,	,
1463.86,	1.437459,	0.001001924,	5,	,	,	,	,	,	,	,	,	,	,	,	,	,
1506.95,	1.496324,	0.001001977,	5,	,	,	,	,	,	,	,	,	,	,	,	,	,
1549.89,	1.255829,	1.391293e-06,	5,	,	,	,	,	,	,	,	,	,	,	,	,	,
1592.89,	1.205079,	1.348189e-06,	5,	,	,	,	,	,	,	,	,	,	,	,	,	,
1635.88,	1.179081,	1.135719e-06,	5,	,	,	,	,	,	,	,	,	,	,	,	,	,
1678.74,	1.162225,	1.116265e-06,	5,	,	,	,	,	,	,	,	,	,	,	,	,	,
1721.58,	1.149969,	1.15708e-06,	5,	,	,	,	,	,	,	,	,	,	,	,	,	,
1764.15,	1.140323,	1.218494e-06,	5,	,	,	,	,	,	,	,	,	,	,	,	,	,
1806.95,	1.132533,	1.092614e-06,	5,	,	,	,	,	,	,	,	,	,	,	,	,	,
1849.7,	1.609784,	0.005000819,	5,	,	,	,	,	,	,	,	,	,	,	,	,	,
1892.76,	1.626655,	0.005001429,	5,	,	,	,	,	,	,	,	,	,	,	,	,	,
1935.63,	1.636221,	0.005001352,	5,	,	,	,	,	,	,	,	,	,	,	,	,	,
1978.63,	1.643056,	0.005001162,	5,	,	,	,	,	,	,	,	,	,	,	,	,	,
2021.3,	1.648374,	0.005001429,	5,	,	,	,	,	,	,	,	,	,	,	,	,	,
2063.9,	1.652702,	0.005001124,	5,	,	,	,	,	,	,	,	,	,	,	,	,	,
2106.53,	1.656232,	0.005001162,	5,	,	,	,	,	,	,	,	,	,	,	,	,	,
2149.4,	1.442252,	1.312714e-06,	5,	,	,	,	,	,	,	,	,	,	,	,	,	,
2192.1,	1.402127,	1.373365e-06,	5,	,	,	,	,	,	,	,	,	,	,	,	,	,
2234.99,	1.375437,	1.236422e-06,	5,	,	,	,	,	,	,	,	,	,	,	,	,	,
2277.62,	1.354345,	1.324539e-06,	5,	,	,	,	,	,	,	,	,	,	,	,	,	,
2320.55,	1.336645,	1.278001e-06,	5,	,	,	,	,	,	,	,	,	,	,	,	,	,
2363.59,	1.321104,	9.461359e-07,	5,	,	,	,	,	,	,	,	,	,	,	,	,	,
2406.33,	1.305945,	9.903846e-07,	5,	,	,	,	,	,	,	,	,	,	,	,	,	,
2448.97,	1.68163,	0.0100023,	5,	,	,	,	,	,	,	,	,	,	,	,	,	,
2492.11,	1.689665,	0.01000272,	5,	,	,	,	,	,	,	,	,	,	,	,	,	,
2534.89,	1.694994,	0.01000234,	5,	,	,	,	,	,	,	,	,	,	,	,	,	,
2577.6,	1.699223,	0.0100026,	5,	,	,	,	,	,	,	,	,	,	,	,	,	,
2620.54,	1.7027,	0.01000215,	5,	,	,	,	,	,	,	,	,	,	,	,	,	,
2663.4,	1.705722,	0.01000211,	5,	,	,	,	,	,	,	,	,	,	,	,	,	,
2706.45,	1.708262,	0.01000241,	5,	,	,	,	,	,	,	,	,	,	,	,	,	,
2749.17,	1.475761,	1.231845e-06,	5,	,	,	,	,	,	,	,	,	,	,	,	,	,
2791.86,	1.442382,	1.460336e-06,	5,	,	,	,	,	,	,	,	,	,	,	,	,	,
2834.52,	1.420617,	1.258165e-06,	5,	,	,	,	,	,	,	,	,	,	,	,	,	,
2877.5,	1.40351,	1.274186e-06,	5,	,	,	,	,	,	,	,	,	,	,	,	,	,
2920.42,	1.388572,	1.100625e-06,	5,	,	,	,	,	,	,	,	,	,	,	,	,	,
2963.17,	1.375495,	1.365735e-06,	5,	,	,	,	,	,	,	,	,	,	,	,	,	,
3006.12,	1.363824,	1.319198e-06,	5,	,	,	,	,	,	,	,	,	,	,	,	,	,
3049.12,	1.720014,	0.01500275,	5,	,	,	,	,	,	,	,	,	,	,	,	,	,
3091.81,	1.726211,	0.01500313,	5,	,	,	,	,	,	,	,	,	,	,	,	,	,
3134.65,	1.730325,	0.01500286,	5,	,	,	,	,	,	,	,	,	,	,	,	,	,
3177.16,	1.733618,	0.01500313,	5,	,	,	,	,	,	,	,	,	,	,	,	,	,
3219.67,	1.736377,	0.01500271,	5,	,	,	,	,	,	,	,	,	,	,	,	,	,
3262.64,	1.738787,	0.01500271,	5,	,	,	,	,	,	,	,	,	,	,	,	,	,
3305.25,	1.741049,	0.01500248,	5,	,	,	,	,	,	,	,	,	,	,	,	,	,
3348.06,	1.494099,	1.22002e-06,	5,	,	,	,	,	,	,	,	,	,	,	,	,	,
3390.76,	1.462516,	1.280671e-06,	5,	,	,	,	,	,	,	,	,	,	,	,	,	,
3433.51,	1.442543,	1.312714e-06,	5,	,	,	,	,	,	,	,	,	,	,	,	,	,
3476.02,	1.42749,	1.257784e-06,	5,	,	,	,	,	,	,	,	,	,	,	,	,	,
3519.01,	1.414677,	1.191411e-06,	5,	,	,	,	,	,	,	,	,	,	,	,	,	,
3562.17,	1.403315,	1.166235e-06,	5,	,	,	,	,	,	,	,	,	,	,	,	,	,
3604.94,	1.393275,	1.244433e-06,	5,	,	,	,	,	,	,	,	,	,	,	,	,	,
3647.58,	1.746692,	0.02000278,	5,	,	,	,	,	,	,	,	,	,	,	,	,	,
3690.38,	1.752162,	0.02000331,	5,	,	,	,	,	,	,	,	,	,	,	,	,	,
3733.31,	1.755673,	0.02000308,	5,	,	,	,	,	,	,	,	,	,	,	,	,	,
3775.99,	1.758596,	0.02000282,	5,	,	,	,	,	,	,	,	,	,	,	,	,	,
3818.95,	1.760923,	0.02000282,	5,	,	,	,	,	,	,	,	,	,	,	,	,	,
3862,	1.762967,	0.02000316,	5,	,	,	,	,	,	,	,	,	,	,	,	,	,
3904.69,	1.764926,	0.02000285,	5,	,	,	,	,	,	,	,	,	,	,	,	,	,
3947.54,	1.505976,	1.223835e-06,	5,	,	,	,	,	,	,	,	,	,	,	,	,	,
3990.33,	1.475421,	1.366117e-06,	5,	,	,	,	,	,	,	,	,	,	,	,	,	,
4033.11,	1.456667,	1.204381e-06,	5,	,	,	,	,	,	,	,	,	,	,	,	,	,
4076.2,	1.442397,	1.310806e-06,	5,	,	,	,	,	,	,	,	,	,	,	,	,	,
4119.21,	1.430627,	1.366499e-06,	5,	,	,	,	,	,	,	,	,	,	,	,	,	,
4162.22,	1.420488,	1.282197e-06,	5,	,	,	,	,	,	,	,	,	,	,	,	,	,
4205.22,	1.411555,	1.463007e-06,	5,	,	,	,	,	,	,	,	,	,	,	,	,	,
4210.52,	1.410604,	1.656404e-06,	5,	,	,	,	,	,	,	,	,	,	,	,	,	,