Folder: application-notes-data/Quantification/development/HER_repeatability_single_day

Note: README.md
# application-notes-data
This repository contains code and data to reproduce the data treatment and figure in our application notes

File: HERonPt_RnD1_1.csv
ixdat version = 0.2.3
name = 2022-04-26 12_31_02 HER_repetition_1 AND 2022-04-26 12_31_02 HER_repetition_1_01_01_CVA_DUSB0_C01.mpt AND 2022-04-26 12_31_02 HER_repetition_1_01_02_CP_DUSB0_C01.mpt
technique = EC-MS
tstamp = 1650969062.0
backend_name = BackendBase(none, address=none)
id = 4
timecol 'time/s' for: 'Ewe/V' and 'raw_current' and 'selector'
timecol 'C3M32 time [s]' for: 'M32'
timecol 'C5M44 time [s]' for: 'M44'
timecol 'C6M18 time [s]' for: 'M18'
timecol 'C4M40 time [s]' for: 'M40'
timecol 'C0M2 time [s]' for: 'M2'
timecol 'C1M4 time [s]' for: 'M4'
timecol 'C2M28 time [s]' for: 'M28'
aliases = {"M2": ["M2 [A]"], "M4": ["M4 [A]"], "M28": ["M28 [A]"], "M32": ["M32 [A]"], "M40": ["M40 [A]"], "M44": ["M44 [A]"], "M18": ["M18 [A]"], "t": ["time/s"], "raw_potential": ["Ewe/V"], "raw_current": ["<I>/mA", "I/mA"], "cycle": ["cycle number"]}
N_header_lines = 18

time/s,	Ewe/V,	raw_current,	selector,	C3M32 time [s],	M32,	C5M44 time [s],	M44,	C6M18 time [s],	M18,	C4M40 time [s],	M40,	C0M2 time [s],	M2,	C1M4 time [s],	M4,	C2M28 time [s],	M28
286.0,	0.944562,	0.00012622,	0,	0.745576,	2.17332e-08,	0.89472,	8.293296e-11,	0.969792,	1.631994e-09,	0.820648,	8.704558e-10,	0.52236,	1.663969e-09,	0.596432,	1.046065e-11,	0.671504,	8.680396e-08
341.476,	1.54768,	0.00153971,	0,	93.0211,	2.163033e-08,	93.1701,	8.752169e-11,	93.2441,	1.591555e-09,	93.0951,	8.818186e-10,	92.7971,	1.663147e-09,	92.8721,	3.395898e-10,	92.9461,	8.541426e-08
390.65,	0.5641697,	-0.00371419,	0,	185.299,	1.764943e-09,	185.448,	5.452317e-11,	185.522,	3.997922e-09,	185.373,	6.618614e-11,	185.075,	2.073008e-09,	185.15,	3.541152e-08,	185.224,	6.531627e-09
439.457,	0.433733,	-0.000622093,	0,	277.575,	1.001625e-09,	277.724,	3.594839e-11,	277.799,	4.223095e-09,	277.65,	3.174538e-11,	277.352,	2.115223e-09,	277.426,	3.71731e-08,	277.501,	2.888404e-09
488.257,	1.40973,	0.010586,	1,	369.851,	7.409544e-10,	370,	4.962248e-11,	370.075,	4.119678e-09,	369.926,	2.16571e-11,	369.628,	2.084232e-09,	369.702,	3.761119e-08,	369.777,	1.679165e-09
537.143,	1.013925,	-0.00157177,	1,	462.129,	7.670538e-10,	462.278,	4.133508e-11,	462.353,	4.128407e-09,	462.204,	2.542356e-11,	461.906,	2.188743e-09,	461.98,	3.726073e-08,	462.055,	2.537873e-09
586.317,	0.030433,	-0.048387,	1,	554.405,	5.199419e-10,	554.554,	5.267435e-11,	554.628,	4.005645e-09,	554.479,	1.394969e-11,	554.181,	2.130244e-09,	554.256,	3.729281e-08,	554.33,	8.375883e-10
634.75,	0.959916,	0.00379794,	2,	646.682,	5.483573e-10,	646.831,	5.401304e-11,	646.905,	4.00257e-09,	646.756,	1.557237e-11,	646.458,	2.152011e-09,	646.533,	3.717973e-08,	646.607,	9.66351e-10
683.636,	1.46366,	0.000275622,	2,	738.958,	4.639532e-10,	739.107,	4.308102e-11,	739.182,	3.974453e-09,	739.033,	1.217295e-11,	738.735,	2.180544e-09,	738.809,	3.796412e-08,	738.884,	6.757486e-10
732.81,	0.480189,	-0.00175025,	2,	831.234,	5.314776e-10,	831.383,	7.170522e-11,	831.458,	3.941442e-09,	831.309,	1.271117e-11,	831.011,	2.184922e-09,	831.085,	3.706344e-08,	831.16,	8.333205e-10
781.618,	0.517642,	-0.000400149,	2,	923.512,	4.29949e-10,	923.661,	3.733249e-11,	923.736,	3.970697e-09,	923.587,	1.083651e-11,	923.289,	3.631335e-09,	923.363,	3.814602e-08,	923.438,	5.408709e-10
830.417,	1.49369,	0.0116891,	3,	1015.79,	1.612977e-09,	1015.94,	7.168263e-11,	1016.01,	3.942224e-09,	1015.86,	1.070419e-11,	1015.57,	2.161268e-09,	1015.64,	3.671975e-08,	1015.71,	5.47316e-10
879.304,	0.929965,	-0.00308931,	3,	1108.07,	6.846335e-10,	1108.21,	3.537228e-11,	1108.29,	3.996794e-09,	1108.14,	2.584078e-11,	1107.84,	2.327188e-09,	1107.92,	3.707527e-08,	1107.99,	2.635075e-09
928.111,	0.0680649,	0.00814735,	3,	1200.34,	5.236399e-10,	1200.49,	4.881975e-11,	1200.57,	3.930846e-09,	1200.42,	1.029282e-11,	1200.12,	2.209699e-09,	1200.19,	3.750033e-08,	1200.27,	6.110288e-10
976.91,	1.04389,	0.00554734,	4,	1292.62,	4.73077e-10,	1292.77,	3.100749e-11,	1292.84,	3.88175e-09,	1292.69,	1.456086e-11,	1292.39,	2.230432e-09,	1292.47,	3.760753e-08,	1292.54,	1.319054e-09
1025.8,	1.37973,	-0.00026646,	4,	1384.89,	5.327649e-10,	1385.04,	3.187507e-11,	1385.12,	3.871962e-09,	1384.97,	1.524459e-11,	1384.67,	2.245093e-09,	1384.75,	3.696012e-08,	1384.82,	1.479176e-09
1074.97,	0.396252,	-0.0017568,	4,	1477.17,	4.310981e-10,	1477.32,	2.913426e-11,	1477.39,	3.888759e-09,	1477.24,	1.024726e-11,	1476.95,	2.263936e-09,	1477.02,	3.723597e-08,	1477.1,	6.73834e-10
1123.78,	0.601654,	-0.000258773,	4,	1569.45,	4.139278e-10,	1569.6,	2.837095e-11,	1569.67,	3.920835e-09,	1569.52,	9.419466e-12,	1569.22,	2.300796e-09,	1569.3,	3.769799e-08,	1569.37,	5.35837e-10
1172.58,	1.57767,	0.0209431,	5,	1661.72,	3.828417e-10,	1661.87,	2.767876e-11,	1661.95,	3.917688e-09,	1661.8,	9.385901e-12,	1661.5,	2.314255e-09,	1661.58,	3.762585e-08,	1661.65,	4.84297e-10
1221.46,	0.845954,	-0.00676535,	5,	1754,	3.756114e-10,	1754.15,	2.728178e-11,	1754.22,	3.839136e-09,	1754.08,	8.243458e-12,	1753.78,	2.882625e-09,	1753.85,	3.746154e-08,	1753.93,	4.597921e-10
1270.27,	0.152013,	0.00666466,	5,	1846.28,	3.653461e-10,	1846.43,	2.735497e-11,	1846.5,	3.923658e-09,	1846.35,	8.020779e-12,	1846.06,	2.971377e-09,	1846.13,	3.858253e-08,	1846.2,	4.127913e-10
1339.47,	0.916726,	2.19955e-06,	6,	1938.56,	5.104869e-10,	1938.7,	2.692415e-11,	1938.78,	3.879071e-09,	1938.63,	1.62636e-11,	1938.33,	2.357519e-09,	1938.41,	3.773495e-08,	1938.48,	1.793353e-09
1503.47,	0.947243,	2.504715e-06,	6,	2030.83,	3.536217e-10,	2030.98,	2.703838e-11,	2031.05,	3.881351e-09,	2030.9,	7.786855e-12,	2030.61,	2.362093e-09,	2030.68,	3.773131e-08,	2030.76,	3.831321e-10
1634.25,	0.409233,	-0.00249778,	7,	2123.11,	3.492378e-10,	2123.26,	3.050897e-11,	2123.33,	3.80157e-09,	2123.18,	7.898714e-12,	2122.88,	2.347719e-09,	2122.96,	3.767951e-08,	2123.03,	3.939161e-10
1791.69,	0.0493023,	-0.00249698,	7,	2215.38,	3.454574e-10,	2215.53,	2.808522e-11,	2215.61,	3.851805e-09,	2215.46,	7.663787e-12,	2215.16,	2.368198e-09,	2215.24,	3.825149e-08,	2215.31,	3.661742e-10
1954,	0.124828,	1.97068e-06,	8,	2307.66,	3.406201e-10,	2307.81,	2.680364e-11,	2307.88,	3.954336e-09,	2307.74,	1.170071e-11,	2307.44,	4.063319e-09,	2307.51,	3.836061e-08,	2307.59,	3.592458e-10
2115.01,	0.619981,	2.19955e-06,	8,	2399.94,	3.294337e-10,	2400.09,	2.549655e-11,	2400.16,	3.835137e-09,	2400.01,	6.804254e-12,	2399.71,	4.084038e-09,	2399.79,	3.74635e-08,	2399.86,	3.439148e-10
2223.61,	0.1637,	-0.00499726,	9,	2492.21,	3.463526e-10,	2492.36,	2.528563e-11,	2492.44,	3.870519e-09,	2492.29,	7.428569e-12,	2491.99,	4.089011e-09,	2492.07,	3.759445e-08,	2492.14,	5.124847e-10
2387.3,	0.03691281,	-0.00499726,	9,	2584.49,	3.251116e-10,	2584.64,	2.582901e-11,	2584.71,	3.826165e-09,	2584.57,	6.800571e-12,	2584.27,	2.408685e-09,	2584.34,	3.79301e-08,	2584.42,	3.491452e-10
2550,	0.106119,	2.77173e-06,	10,	2676.77,	4.629996e-10,	2676.92,	2.555714e-11,	2676.99,	3.793656e-09,	2676.84,	1.432579e-11,	2676.54,	2.379859e-09,	2676.62,	3.688333e-08,	2676.69,	1.741646e-09
2714,	0.299825,	2.54286e-06,	10,	2769.04,	3.15642e-10,	2769.19,	2.537426e-11,	2769.27,	3.884064e-09,	2769.12,	6.287946e-12,	2768.82,	2.403596e-09,	2768.89,	3.83679e-08,	2768.97,	3.166835e-10
2823.91,	0.0348842,	-0.0099974,	11,	2861.32,	3.138769e-10,	2861.47,	2.699971e-11,	2861.54,	3.872815e-09,	2861.39,	6.095853e-12,	2861.1,	6.017617e-09,	2861.17,	3.781605e-08,	2861.24,	3.13915e-10
[...]
3450.41,	0.0226207,	-0.01499808,	13,	3230.43,	3.105253e-10,	3230.58,	2.527642e-11,	3230.65,	3.756763e-09,	3230.5,	6.34206e-12,	3230.2,	2.425156e-09,	3230.28,	3.813875e-08,	3230.35,	3.807939e-10
3614.41,	0.0222692,	-0.014998,	13,	3322.7,	3.033803e-10,	3322.85,	2.509265e-11,	3322.93,	3.866783e-09,	3322.78,	5.581037e-12,	3322.48,	2.442415e-09,	3322.56,	3.786118e-08,	3322.63,	2.930386e-10
3777,	0.0986465,	2.2377e-06,	14,	3414.98,	2.997385e-10,	3415.13,	2.463533e-11,	3415.2,	3.7812e-09,	3415.05,	5.648639e-12,	3414.76,	2.566894e-09,	3414.83,	3.770698e-08,	3414.9,	2.898593e-10
3941,	0.183517,	2.39028e-06,	14,	3507.26,	2.961051e-10,	3507.4,	2.455816e-11,	3507.48,	3.867154e-09,	3507.33,	5.228808e-12,	3507.03,	8.191943e-09,	3507.11,	3.760074e-08,	3507.18,	2.809157e-10
4087.91,	0.0190181,	-0.0199972,	15,	3599.53,	2.894249e-10,	3599.68,	2.450476e-11,	3599.76,	3.854447e-09,	3599.61,	5.270053e-12,	3599.31,	8.261285e-09,	3599.38,	3.835343e-08,	3599.46,	2.689106e-10
4251.91,	0.0189302,	-0.0199973,	15,	3691.81,	2.900624e-10,	3691.96,	2.56594e-11,	3692.04,	3.876629e-09,	3691.89,	4.941018e-12,	3691.59,	8.253708e-09,	3691.66,	3.77393e-08,	3691.74,	2.573644e-10
4414,	0.109982,	1.97068e-06,	16,	3784.09,	2.883969e-10,	3784.24,	2.423435e-11,	3784.31,	3.802346e-09,	3784.16,	4.795794e-12,	3783.86,	2.503093e-09,	3783.94,	3.828789e-08,	3784.01,	2.536834e-10
4578,	0.19123,	2.42842e-06,	16,	3876.36,	2.841215e-10,	3876.51,	2.496921e-11,	3876.59,	3.758895e-09,	3876.44,	4.809165e-12,	3876.14,	2.46532e-09,	3876.21,	3.723083e-08,	3876.29,	2.515388e-10
,	,	,	,	3968.64,	2.813564e-10,	3968.79,	2.426689e-11,	3968.86,	3.78726e-09,	3968.71,	4.862993e-12,	3968.42,	2.464001e-09,	3968.49,	3.757555e-08,	3968.57,	2.51566e-10
,	,	,	,	4060.92,	2.783645e-10,	4061.07,	2.431468e-11,	4061.14,	3.804265e-09,	4060.99,	4.758356e-12,	4060.69,	1.019796e-08,	4060.77,	3.762658e-08,	4060.84,	2.432768e-10
,	,	,	,	4153.19,	2.815864e-10,	4153.34,	2.446073e-11,	4153.42,	3.832456e-09,	4153.27,	4.528813e-12,	4152.97,	1.029615e-08,	4153.05,	3.832423e-08,	4153.12,	2.456214e-10
,	,	,	,	4245.47,	2.798829e-10,	4245.62,	2.433813e-11,	4245.69,	3.848317e-09,	4245.55,	4.381361e-12,	4245.25,	1.031052e-08,	4245.32,	3.747358e-08,	4245.4,	2.445809e-10
,	,	,	,	4337.75,	2.758345e-10,	4337.9,	2.447758e-11,	4337.97,	3.749141e-09,	4337.82,	4.756693e-12,	4337.52,	2.701838e-09,	4337.6,	3.825149e-08,	4337.67,	2.530063e-10
,	,	,	,	4430.02,	2.748275e-10,	4430.17,	2.337361e-11,	4430.25,	3.785375e-09,	4430.1,	4.342649e-12,	4429.8,	2.511446e-09,	4429.87,	3.748892e-08,	4429.95,	2.319408e-10
,	,	,	,	4522.3,	2.761664e-10,	4522.45,	2.446228e-11,	4522.52,	3.780201e-09,	4522.375,	4.729824e-12,	4522.08,	2.495576e-09,	4522.15,	3.733901e-08,	4522.23,	2.344178e-10
,	,	,	,	4614.58,	2.745139e-10,	4614.73,	2.442029e-11,	4614.8,	3.748803e-09,	4614.65,	4.502594e-12,	4614.35,	2.509853e-09,	4614.43,	3.75543e-08,	4614.5,	2.353615e-10
,	,	,	,	4706.85,	2.729969e-10,	4707,	2.40875e-11,	4707.08,	3.760324e-09,	4706.93,	4.412785e-12,	4706.63,	2.508509e-09,	4706.7,	3.778389e-08,	4706.78,	2.359115e-10
,	,	,	,	4799.13,	2.749546e-10,	4799.28,	2.407653e-11,	4799.35,	3.780987e-09,	4799.2,	5.078961e-12,	4798.91,	2.515178e-09,	4798.98,	3.777986e-08,	4799.06,	2.843993e-10
,	,	,	,	4891.41,	2.699461e-10,	4891.56,	2.805761e-11,	4891.63,	3.773294e-09,	4891.48,	4.267918e-12,	4891.18,	2.518428e-09,	4891.26,	3.750445e-08,	4891.33,	2.321906e-10
,	,	,	,	4900.41,	2.678222e-10,	4900.56,	2.836352e-11,	4900.63,	3.760062e-09,	4900.48,	4.401961e-12,	4900.19,	2.504814e-09,	4900.26,	3.810235e-08,	4900.34,	2.345588e-10

File: HERonPt_RnD1_2.csv
ixdat version = 0.2.3
name = 2022-04-26 13_53_02 HER_repetition_2 AND 2022-04-26 13_53_02 HER_repetition_2_01_01_CVA_DUSB0_C01.mpt AND 2022-04-26 13_53_02 HER_repetition_2_01_02_CP_DUSB0_C01.mpt
technique = EC-MS
tstamp = 1650973982.0
backend_name = BackendBase(none, address=none)
id = 35
timecol 'time/s' for: 'Ewe/V' and 'raw_current' and 'selector'
timecol 'C0M2 time [s]' for: 'M2'
timecol 'C3M32 time [s]' for: 'M32'
timecol 'C4M40 time [s]' for: 'M40'
timecol 'C5M44 time [s]' for: 'M44'
timecol 'C2M28 time [s]' for: 'M28'
timecol 'C6M18 time [s]' for: 'M18'
timecol 'C1M4 time [s]' for: 'M4'
aliases = {"M2": ["M2 [A]"], "M4": ["M4 [A]"], "M28": ["M28 [A]"], "M32": ["M32 [A]"], "M40": ["M40 [A]"], "M44": ["M44 [A]"], "M18": ["M18 [A]"], "t": ["time/s"], "raw_potential": ["Ewe/V"], "raw_current": ["I/mA", "<I>/mA"], "cycle": ["cycle number"]}
N_header_lines = 18

time/s,	Ewe/V,	raw_current,	selector,	C0M2 time [s],	M2,	C3M32 time [s],	M32,	C4M40 time [s],	M40,	C5M44 time [s],	M44,	C2M28 time [s],	M28,	C6M18 time [s],	M18,	C1M4 time [s],	M4
55.0,	0.742108,	-3.4102e-05,	0,	0.481083,	2.607795e-09,	0.70517,	2.796816e-10,	0.779199,	4.591517e-12,	0.854228,	2.706022e-11,	0.630141,	2.399671e-10,	0.928257,	3.854992e-09,	0.556112,	4.02997e-08
108.05,	1.60289,	0.0330434,	0,	87.1312,	2.527748e-09,	87.3542,	2.731686e-10,	87.4292,	4.324576e-12,	87.5032,	3.767148e-11,	87.2802,	2.340334e-10,	87.5782,	3.749037e-09,	87.2052,	3.756256e-08
153.578,	0.887387,	-0.00490191,	0,	173.781,	2.484967e-09,	174.004,	2.753826e-10,	174.079,	4.279794e-12,	174.153,	3.610255e-11,	173.93,	2.323517e-10,	174.228,	3.734784e-09,	173.855,	3.727022e-08
199.102,	0.04424724,	0.01877,	0,	260.431,	2.496279e-09,	260.655,	2.731252e-10,	260.729,	4.292706e-12,	260.804,	3.911046e-11,	260.58,	2.333933e-10,	260.878,	3.7549e-09,	260.506,	3.735728e-08
244.963,	0.9614861,	0.00617493,	1,	347.081,	2.490449e-09,	347.305,	2.73474e-10,	347.379,	4.49582e-12,	347.454,	3.064896e-11,	347.23,	2.286031e-10,	347.528,	3.769884e-09,	347.156,	3.732079e-08
290.536,	1.5279,	0.000718922,	1,	433.73,	2.521277e-09,	433.954,	2.723302e-10,	434.029,	4.205573e-12,	434.103,	3.709343e-11,	433.879,	2.273843e-10,	434.178,	3.720324e-09,	433.806,	3.730584e-08
336.711,	0.604364,	-0.00328365,	1,	520.381,	2.493707e-09,	520.604,	2.711076e-10,	520.679,	3.966205e-12,	520.753,	2.957407e-11,	520.53,	2.252536e-10,	520.828,	3.732049e-09,	520.455,	3.820054e-08
382.175,	0.326121,	0.00396417,	1,	607.032,	2.510601e-09,	607.255,	2.80625e-10,	607.33,	4.220554e-12,	607.404,	3.601584e-11,	607.181,	2.268822e-10,	607.479,	3.711378e-09,	607.106,	3.82369e-08
428.036,	1.24335,	0.00724498,	2,	693.68,	2.497105e-09,	693.904,	2.741924e-10,	693.978,	4.23003e-12,	694.053,	2.738885e-11,	693.829,	2.3015e-10,	694.127,	3.772076e-09,	693.755,	3.692416e-08
473.924,	1.23975,	-0.000626059,	2,	780.331,	2.513186e-09,	780.555,	3.541822e-10,	780.629,	4.434329e-12,	780.704,	3.678498e-11,	780.48,	2.279527e-10,	780.778,	3.749153e-09,	780.406,	3.743209e-08
520.1,	0.316104,	-0.00416485,	2,	866.981,	2.508556e-09,	867.205,	2.68956e-10,	867.279,	4.359155e-12,	867.354,	2.712441e-11,	867.13,	2.238519e-10,	867.428,	3.725642e-09,	867.056,	3.696695e-08
565.549,	0.613939,	0.000826764,	2,	953.631,	2.472501e-09,	953.854,	8.476144e-10,	953.929,	4.296056e-12,	954.003,	3.734987e-11,	953.78,	2.27183e-10,	954.078,	3.67992e-09,	953.705,	3.676177e-08
611.41,	1.53124,	0.0127878,	3,	1040.28,	5.232598e-09,	1040.5,	2.721312e-10,	1040.58,	4.110852e-12,	1040.65,	2.700545e-11,	1040.43,	2.150112e-10,	1040.73,	3.755015e-09,	1040.36,	3.717055e-08
657.312,	0.951577,	-0.00305487,	3,	1126.93,	2.51932e-09,	1127.15,	2.627006e-10,	1127.23,	4.155803e-12,	1127.3,	2.519737e-11,	1127.08,	2.119337e-10,	1127.38,	3.725984e-09,	1127.01,	3.792771e-08
703.488,	0.0279843,	-0.0538208,	3,	1213.58,	2.520527e-09,	1213.8,	2.601989e-10,	1213.88,	4.160304e-12,	1213.95,	2.440466e-11,	1213.73,	2.155939e-10,	1214.03,	3.695411e-09,	1213.65,	3.688288e-08
748.607,	0.895564,	0.00651619,	4,	1300.23,	2.510161e-09,	1300.45,	2.625734e-10,	1300.53,	3.684103e-12,	1300.6,	2.381345e-11,	1300.38,	2.114562e-10,	1300.68,	3.725291e-09,	1300.31,	3.721916e-08
794.525,	1.586957,	0.0037322,	4,	1386.88,	2.518082e-09,	1387.1,	2.581729e-10,	1387.18,	3.830948e-12,	1387.25,	2.425096e-11,	1387.03,	2.081852e-10,	1387.33,	3.739264e-09,	1386.95,	3.772399e-08
840.701,	0.663383,	-0.00963257,	4,	1473.53,	3.27398e-09,	1473.75,	2.615802e-10,	1473.83,	3.955964e-12,	1473.9,	2.360372e-11,	1473.68,	2.107768e-10,	1473.98,	3.727065e-09,	1473.61,	3.695063e-08
886.12,	0.266156,	0.00486201,	4,	1560.18,	3.352574e-09,	1560.4,	2.572158e-10,	1560.48,	3.933344e-12,	1560.55,	2.33279e-11,	1560.33,	2.107615e-10,	1560.63,	3.68617e-09,	1560.26,	3.706625e-08
931.981,	1.18339,	0.00661374,	5,	1646.83,	3.381134e-09,	1647.05,	2.564961e-10,	1647.13,	4.159252e-12,	1647.2,	2.318739e-11,	1646.98,	2.180127e-10,	1647.28,	3.720278e-09,	1646.9,	3.713489e-08
977.899,	1.29908,	-0.000504821,	5,	1733.48,	2.53421e-09,	1733.7,	2.578974e-10,	1733.78,	3.946524e-12,	1733.85,	2.392275e-11,	1733.63,	2.098061e-10,	1733.93,	3.707766e-09,	1733.56,	3.684833e-08
1024.07,	0.375513,	-0.00181771,	5,	1820.13,	2.54291e-09,	1820.35,	2.558832e-10,	1820.43,	4.037043e-12,	1820.5,	2.346519e-11,	1820.28,	2.096189e-10,	1820.58,	3.70938e-09,	1820.2,	3.71251e-08
1069.49,	0.553896,	0.000579068,	5,	1906.78,	2.551529e-09,	1907,	2.62974e-10,	1907.08,	4.495678e-12,	1907.15,	2.329729e-11,	1906.93,	2.561429e-10,	1907.23,	3.711181e-09,	1906.86,	3.689389e-08
1200,	0.833751,	2.04697e-06,	6,	1993.43,	2.760477e-09,	1993.65,	2.551828e-10,	1993.73,	4.011136e-12,	1993.8,	2.398612e-11,	1993.58,	2.104292e-10,	1993.88,	3.678037e-09,	1993.51,	3.694446e-08
1354,	0.88146,	2.84802e-06,	6,	2080.08,	4.369604e-09,	2080.31,	2.57103e-10,	2080.38,	4.164928e-12,	2080.45,	2.351776e-11,	2080.23,	2.09057e-10,	2080.53,	3.701716e-09,	2080.16,	3.687965e-08
1471.83,	0.048034,	-0.00249743,	7,	2166.73,	4.389985e-09,	2166.95,	2.547475e-10,	2167.03,	3.991728e-12,	2167.1,	2.409112e-11,	2166.88,	2.090427e-10,	2167.18,	3.698796e-09,	2166.81,	3.660515e-08
1625.83,	0.0463759,	-0.0024969,	7,	2253.38,	4.38648e-09,	2253.6,	2.542995e-10,	2253.68,	3.960061e-12,	2253.75,	2.324167e-11,	2253.53,	2.098459e-10,	2253.83,	3.743922e-09,	2253.45,	3.773857e-08
1778,	0.127384,	2.27584e-06,	8,	2340.03,	2.57486e-09,	2340.25,	2.525572e-10,	2340.33,	4.101331e-12,	2340.4,	2.326213e-11,	2340.18,	2.084176e-10,	2340.48,	3.680367e-09,	2340.11,	3.760391e-08
1932,	0.226442,	3.03875e-06,	8,	2426.68,	2.562044e-09,	2426.9,	2.570029e-10,	2426.98,	4.230323e-12,	2427.05,	2.363884e-11,	2426.83,	2.324868e-10,	2427.13,	3.700015e-09,	2426.76,	3.67381e-08
2078.91,	0.0367103,	-0.00499737,	9,	2513.33,	2.562872e-09,	2513.56,	2.522443e-10,	2513.63,	4.156605e-12,	2513.7,	2.288665e-11,	2513.48,	2.068536e-10,	2513.78,	3.706589e-09,	2513.41,	3.760028e-08
2232.91,	0.0365346,	-0.00499733,	9,	2599.98,	6.088444e-09,	2600.2,	2.519608e-10,	2600.28,	3.857018e-12,	2600.35,	2.345054e-11,	2600.13,	2.079148e-10,	2600.43,	3.733259e-09,	2600.06,	3.66069e-08
2385,	0.122654,	2.69544e-06,	10,	2686.63,	6.334579e-09,	2686.85,	2.530633e-10,	2686.93,	3.946753e-12,	2687,	2.38461e-11,	2686.78,	2.074661e-10,	2687.08,	3.702208e-09,	2686.7,	3.659004e-08
[...]
2834.53,	0.02774387,	-0.009997746,	11,	2946.58,	2.591634e-09,	2946.81,	2.48189e-10,	2946.88,	3.516803e-12,	2946.95,	2.345747e-11,	2946.73,	2.027938e-10,	2947.03,	3.662489e-09,	2946.66,	3.631441e-08
2987,	0.117061,	2.46657e-06,	12,	3033.23,	2.574454e-09,	3033.45,	2.643587e-10,	3033.53,	4.555723e-12,	3033.6,	2.289073e-11,	3033.38,	2.637833e-10,	3033.68,	3.635362e-09,	3033.31,	3.618896e-08
3141,	0.189515,	1.77995e-06,	12,	3119.88,	2.574255e-09,	3120.1,	2.489567e-10,	3120.18,	3.80309e-12,	3120.25,	2.281346e-11,	3120.03,	2.091122e-10,	3120.33,	3.596206e-09,	3119.95,	3.650664e-08
3281.52,	0.0231136,	-0.0149983,	13,	3206.53,	8.188549e-09,	3206.76,	2.522003e-10,	3206.83,	3.819909e-12,	3206.9,	2.363501e-11,	3206.68,	2.129923e-10,	3206.98,	3.700996e-09,	3206.61,	3.737474e-08
3435.52,	0.0230295,	-0.014998,	13,	3293.18,	8.331202e-09,	3293.4,	2.524235e-10,	3293.48,	3.794224e-12,	3293.55,	2.225984e-11,	3293.33,	2.37823e-10,	3293.63,	3.713812e-09,	3293.26,	3.718914e-08
3588,	0.1123923,	2.46657e-06,	14,	3379.83,	8.360288e-09,	3380.06,	2.63721e-10,	3380.13,	4.558052e-12,	3380.2,	2.251766e-11,	3379.98,	2.798499e-10,	3380.28,	3.728022e-09,	3379.91,	3.652837e-08
3742,	0.177282,	2.77173e-06,	14,	3466.48,	8.374455e-09,	3466.7,	2.479891e-10,	3466.78,	3.686317e-12,	3466.85,	2.209065e-11,	3466.63,	2.068692e-10,	3466.93,	3.672691e-09,	3466.56,	3.635921e-08
3882.43,	0.01993881,	-0.0199975,	15,	3553.13,	2.612773e-09,	3553.35,	2.434181e-10,	3553.43,	4.136985e-12,	3553.5,	2.281882e-11,	3553.28,	2.03755e-10,	3553.58,	3.623059e-09,	3553.2,	3.605446e-08
4036.43,	0.0198777,	-0.0199975,	15,	3639.78,	2.579153e-09,	3640.01,	2.494296e-10,	3640.08,	4.032072e-12,	3640.15,	2.271399e-11,	3639.93,	2.019545e-10,	3640.23,	3.61037e-09,	3639.86,	3.644286e-08
4189,	0.107701,	2.58101e-06,	16,	3726.43,	2.584198e-09,	3726.65,	2.45305e-10,	3726.73,	3.876603e-12,	3726.8,	2.307611e-11,	3726.58,	2.044522e-10,	3726.88,	3.619089e-09,	3726.51,	3.643569e-08
4343,	0.164617,	2.16141e-06,	16,	3813.08,	1.015644e-08,	3813.31,	2.479277e-10,	3813.38,	3.985451e-12,	3813.45,	2.251554e-11,	3813.23,	2.045247e-10,	3813.53,	3.723868e-09,	3813.16,	3.609311e-08
,	,	,	,	3899.73,	1.02641e-08,	3899.95,	2.472336e-10,	3900.03,	3.747326e-12,	3900.1,	2.298746e-11,	3899.88,	2.000647e-10,	3900.18,	3.718497e-09,	3899.81,	3.721832e-08
,	,	,	,	3986.38,	1.031151e-08,	3986.61,	2.462567e-10,	3986.68,	3.825114e-12,	3986.75,	2.277736e-11,	3986.53,	2.044201e-10,	3986.83,	3.681015e-09,	3986.46,	3.592517e-08
,	,	,	,	4073.03,	1.031226e-08,	4073.25,	2.434927e-10,	4073.33,	3.703456e-12,	4073.4,	2.216467e-11,	4073.18,	2.001606e-10,	4073.48,	3.697701e-09,	4073.11,	3.602369e-08
,	,	,	,	4159.68,	2.619501e-09,	4159.9,	2.387828e-10,	4159.98,	3.769001e-12,	4160.05,	2.268174e-11,	4159.83,	1.960577e-10,	4160.13,	3.588631e-09,	4159.76,	3.686544e-08
,	,	,	,	4246.33,	2.610472e-09,	4246.56,	2.377089e-10,	4246.63,	3.583805e-12,	4246.7,	2.191185e-11,	4246.48,	1.895293e-10,	4246.78,	3.593381e-09,	4246.41,	3.608916e-08
,	,	,	,	4332.98,	2.592991e-09,	4333.2,	2.396591e-10,	4333.28,	3.362834e-12,	4333.35,	2.270529e-11,	4333.13,	1.887291e-10,	4333.43,	3.629344e-09,	4333.06,	3.572474e-08
,	,	,	,	4419.63,	2.594421e-09,	4419.85,	2.366845e-10,	4419.93,	3.51047e-12,	4420,	2.197202e-11,	4419.78,	1.904217e-10,	4420.08,	3.625088e-09,	4419.7,	3.566168e-08
,	,	,	,	4506.28,	2.601406e-09,	4506.5,	2.386927e-10,	4506.58,	3.515851e-12,	4506.65,	2.252616e-11,	4506.43,	1.921247e-10,	4506.73,	3.58396e-09,	4506.35,	3.573429e-08
,	,	,	,	4589.56,	2.584291e-09,	4589.78,	2.378499e-10,	4589.85,	3.948088e-12,	4589.93,	2.185301e-11,	4589.7,	1.926607e-10,	4590,	3.622767e-09,	4589.63,	3.571458e-08