Folder: application-notes-data/Quantification/development/HER_repeatability_single_day (part 2)

File: HERonPt_RnD1_3.csv
ixdat version = 0.2.3
name = 2022-04-26 15_09_49 HER_repetition_3 AND 2022-04-26 15_09_49 HER_repetition_3_01_01_CVA_DUSB0_C01.mpt AND 2022-04-26 15_09_49 HER_repetition_3_01_02_CP_DUSB0_C01.mpt
technique = EC-MS
tstamp = 1650978589.0
backend_name = BackendBase(none, address=none)
id = 66
timecol 'time/s' for: 'Ewe/V' and 'raw_current' and 'selector'
timecol 'C3M32 time [s]' for: 'M32'
timecol 'C5M44 time [s]' for: 'M44'
timecol 'C6M18 time [s]' for: 'M18'
timecol 'C4M40 time [s]' for: 'M40'
timecol 'C0M2 time [s]' for: 'M2'
timecol 'C1M4 time [s]' for: 'M4'
timecol 'C2M28 time [s]' for: 'M28'
aliases = {"M2": ["M2 [A]"], "M4": ["M4 [A]"], "M28": ["M28 [A]"], "M32": ["M32 [A]"], "M40": ["M40 [A]"], "M44": ["M44 [A]"], "M18": ["M18 [A]"], "t": ["time/s"], "raw_potential": ["Ewe/V"], "raw_current": ["<I>/mA", "I/mA"], "cycle": ["cycle number"]}
N_header_lines = 18

time/s,	Ewe/V,	raw_current,	selector,	C3M32 time [s],	M32,	C5M44 time [s],	M44,	C6M18 time [s],	M18,	C4M40 time [s],	M40,	C0M2 time [s],	M2,	C1M4 time [s],	M4,	C2M28 time [s],	M28
49.0,	0.377218,	-0.000155107,	0,	0.738858,	2.457109e-10,	0.887861,	2.28841e-11,	0.961862,	3.688529e-09,	0.812859,	3.978985e-12,	0.514852,	2.684012e-09,	0.589854,	3.730339e-08,	0.663856,	2.01273e-10
102.05,	1.237973,	0.00820633,	0,	87.3891,	2.422951e-10,	87.5381,	3.196509e-11,	87.6121,	3.600002e-09,	87.4631,	3.681349e-12,	87.1651,	2.58168e-09,	87.2401,	3.588097e-08,	87.3141,	1.92985e-10
147.938,	1.24515,	-0.000536398,	0,	174.038,	2.518006e-10,	174.187,	3.129934e-11,	174.262,	3.6117e-09,	174.113,	3.653749e-12,	173.815,	2.548093e-09,	173.889,	3.596437e-08,	173.964,	1.973417e-10
194.113,	0.321498,	-0.00406125,	0,	260.688,	2.435573e-10,	260.837,	3.114779e-11,	260.912,	3.602817e-09,	260.763,	3.529706e-12,	260.465,	2.588057e-09,	260.539,	3.602986e-08,	260.614,	1.977368e-10
238.963,	0.596536,	0.000900352,	1,	347.338,	2.534551e-10,	347.487,	2.845592e-11,	347.562,	3.59692e-09,	347.413,	3.702122e-12,	347.115,	2.55217e-09,	347.189,	3.591065e-08,	347.264,	2.226044e-10
285.138,	1.52016,	0.0117545,	1,	433.989,	2.450077e-10,	434.138,	2.877854e-11,	434.212,	3.599519e-09,	434.063,	3.74898e-12,	433.765,	2.58437e-09,	433.84,	3.575353e-08,	433.914,	1.937294e-10
331.041,	0.962643,	-0.00286371,	1,	520.638,	2.501642e-10,	520.787,	2.703626e-11,	520.862,	3.58219e-09,	520.713,	3.794397e-12,	520.414,	2.567291e-09,	520.49,	3.572614e-08,	520.563,	1.956756e-10
377.217,	0.0390329,	-0.0245766,	1,	607.288,	2.432258e-10,	607.437,	2.872634e-11,	607.512,	3.583494e-09,	607.363,	3.712725e-12,	607.065,	2.582786e-09,	607.139,	3.573534e-08,	607.214,	1.963562e-10
422.336,	0.884449,	0.00688663,	2,	693.939,	2.506553e-10,	694.088,	2.597291e-11,	694.163,	3.626128e-09,	694.014,	3.515192e-12,	693.716,	2.556696e-09,	693.79,	3.581629e-08,	693.865,	1.953761e-10
468.239,	1.59836,	0.00551882,	2,	780.589,	2.450745e-10,	780.738,	2.9163e-11,	780.813,	3.577756e-09,	780.664,	3.55545e-12,	780.366,	2.567134e-09,	780.44,	3.567036e-08,	780.515,	1.91341e-10
514.415,	0.674781,	-0.0128949,	2,	867.239,	2.467881e-10,	867.388,	2.574628e-11,	867.462,	3.614782e-09,	867.313,	3.993958e-12,	867.015,	2.554163e-09,	867.09,	3.585244e-08,	867.164,	1.934387e-10
560.103,	0.260142,	0.00479814,	2,	953.889,	2.416452e-10,	954.038,	2.321731e-11,	954.112,	3.56033e-09,	953.963,	3.645317e-12,	953.665,	2.544312e-09,	953.74,	3.624334e-08,	953.814,	1.976283e-10
605.71,	1.17229,	0.00654044,	3,	1040.54,	2.386826e-10,	1040.69,	2.386977e-11,	1040.76,	3.557573e-09,	1040.61,	3.608241e-12,	1040.32,	2.560934e-09,	1040.39,	3.523822e-08,	1040.46,	1.929011e-10
651.627,	1.3102,	-0.00043824,	3,	1127.19,	2.399e-10,	1127.34,	2.332545e-11,	1127.41,	3.576621e-09,	1127.26,	3.651001e-12,	1126.97,	2.563673e-09,	1127.04,	3.534222e-08,	1127.12,	1.930302e-10
697.803,	0.386612,	-0.00176784,	3,	1213.84,	2.4041e-10,	1213.99,	2.306496e-11,	1214.06,	3.568918e-09,	1213.91,	3.313586e-12,	1213.62,	2.574045e-09,	1213.69,	3.555949e-08,	1213.77,	1.963767e-10
742.907,	0.5365,	0.000606375,	4,	1300.49,	2.418217e-10,	1300.64,	2.26268e-11,	1300.71,	3.573212e-09,	1300.56,	3.619148e-12,	1300.27,	3.34068e-09,	1300.34,	3.546584e-08,	1300.41,	1.942698e-10
789.083,	1.46008,	0.00803609,	4,	1387.14,	2.40923e-10,	1387.29,	2.225614e-11,	1387.36,	3.563505e-09,	1387.21,	3.502464e-12,	1386.91,	3.391612e-09,	1386.99,	3.542272e-08,	1387.06,	1.929951e-10
835.301,	1.01636,	-0.00203713,	4,	1473.79,	2.4175e-10,	1473.94,	2.180432e-11,	1474.01,	3.582525e-09,	1473.86,	3.824526e-12,	1473.57,	3.411825e-09,	1473.64,	3.530866e-08,	1473.71,	1.897955e-10
881.476,	0.0926916,	-0.0117782,	4,	1560.44,	2.388512e-10,	1560.59,	2.203523e-11,	1560.66,	3.571418e-09,	1560.51,	3.510811e-12,	1560.22,	2.615588e-09,	1560.29,	3.550663e-08,	1560.37,	1.911433e-10
980.011,	0.653643,	2.31399e-06,	5,	1647.09,	2.360734e-10,	1647.24,	2.220241e-11,	1647.31,	3.57199e-09,	1647.16,	3.572982e-12,	1646.87,	2.586542e-09,	1646.94,	3.5261e-08,	1647.02,	1.926099e-10
1134.01,	0.827295,	2.54286e-06,	5,	1733.74,	2.378616e-10,	1733.89,	2.218208e-11,	1733.96,	3.579326e-09,	1733.81,	3.394801e-12,	1733.52,	2.575646e-09,	1733.59,	3.518299e-08,	1733.66,	1.906372e-10
1250.91,	0.110696,	-0.00249701,	6,	1820.39,	2.386336e-10,	1820.54,	2.198511e-11,	1820.61,	3.546274e-09,	1820.46,	3.203562e-12,	1820.16,	3.53929e-09,	1820.24,	3.537558e-08,	1820.31,	1.897846e-10
1404.91,	0.0460818,	-0.00249724,	6,	1907.04,	2.357865e-10,	1907.19,	2.201779e-11,	1907.26,	3.572992e-09,	1907.11,	3.86634e-12,	1906.82,	4.35983e-09,	1906.89,	3.533909e-08,	1906.96,	1.878208e-10
1557.01,	0.09973152,	2.88617e-06,	7,	1993.69,	2.35278e-10,	1993.84,	2.144779e-11,	1993.91,	3.547547e-09,	1993.76,	3.634932e-12,	1993.47,	4.388174e-09,	1993.54,	3.589771e-08,	1993.62,	1.90954e-10
1711.01,	0.166271,	2.04697e-06,	7,	2080.34,	2.318069e-10,	2080.49,	2.183362e-11,	2080.56,	3.571775e-09,	2080.41,	3.603958e-12,	2080.12,	4.380023e-09,	2080.19,	3.505915e-08,	2080.26,	1.896274e-10
1860.31,	0.0366721,	-0.00499775,	8,	2166.99,	2.356527e-10,	2167.14,	2.142683e-11,	2167.21,	3.506527e-09,	2167.06,	3.591065e-12,	2166.77,	2.610234e-09,	2166.84,	3.484818e-08,	2166.91,	1.902751e-10
2014.31,	0.0362939,	-0.00499783,	8,	2253.64,	2.333441e-10,	2253.79,	2.172361e-11,	2253.86,	3.526487e-09,	2253.71,	3.814897e-12,	2253.42,	2.585427e-09,	2253.49,	3.495361e-08,	2253.57,	1.893859e-10
2167.01,	0.0998385,	2.19955e-06,	9,	2340.29,	2.292712e-10,	2340.44,	2.180592e-11,	2340.51,	3.486353e-09,	2340.36,	3.423132e-12,	2340.07,	2.55979e-09,	2340.14,	3.470612e-08,	2340.21,	1.860459e-10
2321.01,	0.161175,	2.19955e-06,	9,	2426.94,	2.363854e-10,	2427.09,	2.101412e-11,	2427.16,	3.535482e-09,	2427.01,	3.526043e-12,	2426.71,	6.109834e-09,	2426.79,	3.608319e-08,	2426.86,	1.909167e-10
2464.77,	0.0277018,	-0.00999706,	10,	2513.59,	2.318025e-10,	2513.74,	2.09115e-11,	2513.81,	3.533086e-09,	2513.66,	3.687784e-12,	2513.37,	6.273817e-09,	2513.44,	3.58468e-08,	2513.52,	1.879216e-10
2618.77,	0.0275643,	-0.00999729,	10,	2600.24,	2.307659e-10,	2600.39,	2.065757e-11,	2600.46,	3.546628e-09,	2600.31,	3.689557e-12,	2600.02,	6.311183e-09,	2600.09,	3.496612e-08,	2600.16,	1.864724e-10
2771.01,	0.0975195,	2.2377e-06,	11,	2686.89,	2.328739e-10,	2687.04,	2.171515e-11,	2687.11,	3.52617e-09,	2686.96,	3.536252e-12,	2686.66,	6.3223e-09,	2686.74,	3.472408e-08,	2686.81,	1.872376e-10
[...]
3374.01,	0.0947727,	2.92432e-06,	13,	3033.49,	2.305358e-10,	3033.64,	2.098387e-11,	3033.71,	3.490819e-09,	3033.56,	3.372815e-12,	3033.27,	8.069742e-09,	3033.34,	3.452366e-08,	3033.41,	1.89893e-10
3528.01,	0.1474635,	2.35213e-06,	13,	3120.14,	2.310762e-10,	3120.29,	2.133944e-11,	3120.36,	3.544775e-09,	3120.21,	3.636071e-12,	3119.92,	8.254322e-09,	3119.99,	3.469656e-08,	3120.07,	1.937242e-10
3669.99,	0.0199273,	-0.0199969,	14,	3206.79,	2.292063e-10,	3206.94,	2.155433e-11,	3207.01,	3.558153e-09,	3206.86,	3.295815e-12,	3206.57,	8.241655e-09,	3206.64,	3.491122e-08,	3206.71,	1.842513e-10
3823.99,	0.0197631,	-0.0199973,	14,	3293.44,	2.298793e-10,	3293.59,	2.129842e-11,	3293.66,	3.566657e-09,	3293.51,	3.553542e-12,	3293.22,	8.263016e-09,	3293.29,	3.458945e-08,	3293.37,	1.805344e-10
3976.01,	0.0926982,	2.6573e-06,	15,	3380.09,	2.250723e-10,	3380.24,	2.036533e-11,	3380.31,	3.500119e-09,	3380.16,	3.430509e-12,	3379.87,	2.635864e-09,	3379.94,	3.588682e-08,	3380.02,	1.788891e-10
4130.01,	0.143551,	2.12326e-06,	15,	3466.74,	2.273189e-10,	3466.89,	2.046852e-11,	3466.96,	3.509042e-09,	3466.81,	3.371311e-12,	3466.52,	2.609184e-09,	3466.59,	3.460599e-08,	3466.66,	1.795084e-10
,	,	,	,	3553.39,	2.286259e-10,	3553.54,	2.047259e-11,	3553.61,	3.54043e-09,	3553.46,	3.195807e-12,	3553.17,	2.59922e-09,	3553.24,	3.451545e-08,	3553.32,	1.80268e-10
,	,	,	,	3640.04,	2.263568e-10,	3640.19,	2.072256e-11,	3640.26,	3.50716e-09,	3640.11,	3.228369e-12,	3639.82,	9.940668e-09,	3639.89,	3.442115e-08,	3639.96,	1.776887e-10
,	,	,	,	3726.69,	2.299627e-10,	3726.84,	2.123943e-11,	3726.91,	3.535819e-09,	3726.76,	3.307894e-12,	3726.47,	1.011916e-08,	3726.54,	3.444136e-08,	3726.62,	1.816984e-10
,	,	,	,	3813.34,	2.270037e-10,	3813.49,	2.072607e-11,	3813.56,	3.573613e-09,	3813.41,	3.153493e-12,	3813.12,	1.013754e-08,	3813.19,	3.466974e-08,	3813.27,	1.817394e-10
,	,	,	,	3899.99,	2.286214e-10,	3900.14,	2.014763e-11,	3900.21,	3.519834e-09,	3900.06,	3.168795e-12,	3899.77,	1.015274e-08,	3899.84,	3.424872e-08,	3899.91,	1.841446e-10
,	,	,	,	3986.64,	2.285069e-10,	3986.79,	2.084183e-11,	3986.86,	3.539272e-09,	3986.71,	3.692165e-12,	3986.42,	2.650781e-09,	3986.49,	3.430382e-08,	3986.57,	1.806577e-10
,	,	,	,	4073.29,	2.321528e-10,	4073.44,	2.029568e-11,	4073.51,	3.504473e-09,	4073.36,	3.863789e-12,	4073.07,	2.590388e-09,	4073.14,	3.440217e-08,	4073.21,	2.317803e-10
,	,	,	,	4159.94,	2.246009e-10,	4160.09,	2.029237e-11,	4160.16,	3.487411e-09,	4160.01,	3.254546e-12,	4159.72,	2.604873e-09,	4159.79,	3.445891e-08,	4159.87,	1.807592e-10
,	,	,	,	4246.59,	2.263577e-10,	4246.74,	2.074445e-11,	4246.81,	3.470762e-09,	4246.66,	3.510586e-12,	4246.37,	2.603789e-09,	4246.44,	3.467126e-08,	4246.52,	1.817559e-10
,	,	,	,	4333.24,	2.274296e-10,	4333.39,	2.021673e-11,	4333.46,	3.470251e-09,	4333.31,	3.361955e-12,	4333.02,	2.60215e-09,	4333.09,	3.595954e-08,	4333.16,	1.821497e-10
,	,	,	,	4419.89,	2.294825e-10,	4420.04,	2.080257e-11,	4420.11,	3.5137e-09,	4419.96,	3.479663e-12,	4419.66,	2.589988e-09,	4419.74,	3.463639e-08,	4419.81,	1.802925e-10
,	,	,	,	4506.54,	2.991483e-10,	4506.69,	3.739867e-11,	4506.76,	3.449529e-09,	4506.61,	7.201997e-12,	4506.32,	2.497587e-09,	4506.39,	3.525383e-08,	4506.46,	3.90119e-10
,	,	,	,	4593.19,	2.403799e-10,	4593.34,	2.28842e-11,	4593.41,	3.475805e-09,	4593.27,	3.88739e-12,	4592.97,	2.57018e-09,	4593.04,	3.433211e-08,	4593.12,	2.112384e-10
,	,	,	,	4612.88,	2.394808e-10,	4613.03,	2.281312e-11,	4613.11,	3.483704e-09,	4612.96,	4.002327e-12,	4612.66,	2.576226e-09,	4612.73,	3.445772e-08,	4612.81,	2.042322e-10