Folder: application-notes-data/Quantification/development/OER_repeatability_single_day

Note: README.md
# application-notes-data
This repository contains code and data to reproduce the data treatment and figure in our application notes

File: OERonPt_RnD1_1.csv
ixdat version = 0.2.3
name = 2022-04-27 11_30_26 OER_repetition_1 AND 2022-04-27 11_30_26 OER_repetition_1_01_01_CVA_DUSB0_C01.mpt AND 2022-04-27 11_30_26 OER_repetition_1_01_02_CP_DUSB0_C01.mpt
technique = EC-MS
tstamp = 1651051826.0
backend_name = BackendBase(none, address=none)
id = 4
timecol 'time/s' for: 'Ewe/V' and 'raw_current' and 'selector'
timecol 'C1M4 time [s]' for: 'M4'
timecol 'C5M44 time [s]' for: 'M44'
timecol 'C4M40 time [s]' for: 'M40'
timecol 'C0M2 time [s]' for: 'M2'
timecol 'C2M28 time [s]' for: 'M28'
timecol 'C3M32 time [s]' for: 'M32'
timecol 'C6M18 time [s]' for: 'M18'
aliases = {"M2": ["M2 [A]"], "M4": ["M4 [A]"], "M28": ["M28 [A]"], "M32": ["M32 [A]"], "M40": ["M40 [A]"], "M44": ["M44 [A]"], "M18": ["M18 [A]"], "t": ["time/s"], "raw_potential": ["Ewe/V"], "raw_current": ["I/mA", "<I>/mA"], "cycle": ["cycle number"]}
N_header_lines = 18

time/s,	Ewe/V,	raw_current,	selector,	C1M4 time [s],	M4,	C5M44 time [s],	M44,	C4M40 time [s],	M40,	C0M2 time [s],	M2,	C2M28 time [s],	M28,	C3M32 time [s],	M32,	C6M18 time [s],	M18
490.0,	0.911481,	-9.89945e-05,	0,	0.620655,	1.297145e-12,	0.918511,	8.095496e-11,	0.843547,	9.340672e-10,	0.545691,	1.409445e-09,	0.694619,	8.853932e-08,	0.769583,	2.305096e-08,	0.992475,	1.545687e-09
556.42,	1.36116,	-0.000132252,	0,	113.715,	1.070156e-12,	114.013,	8.15588e-11,	113.939,	9.265231e-10,	113.641,	1.402272e-09,	113.79,	8.887764e-08,	113.864,	2.320657e-08,	114.088,	1.459683e-09
616.688,	0.155661,	-0.0113201,	0,	226.811,	2.799876e-10,	227.109,	9.016713e-11,	227.035,	9.129069e-10,	226.737,	1.377985e-09,	226.886,	8.626903e-08,	226.96,	2.257056e-08,	227.184,	1.373184e-09
675.765,	1.046918,	0.00588077,	1,	339.906,	3.596299e-08,	340.204,	5.115445e-11,	340.129,	5.930795e-11,	339.831,	1.762755e-09,	339.98,	4.88013e-09,	340.055,	1.54403e-09,	340.278,	3.775034e-09
735.295,	1.16322,	-0.000648516,	1,	453.001,	3.724942e-08,	453.299,	2.467651e-11,	453.225,	5.948402e-12,	452.927,	1.780381e-09,	453.076,	3.55758e-10,	453.15,	3.73809e-10,	453.374,	4.042951e-09
794.927,	0.05054713,	0.0244701,	1,	566.096,	3.741113e-08,	566.394,	3.776485e-11,	566.32,	4.855122e-12,	566.022,	1.821105e-09,	566.171,	2.779162e-10,	566.245,	4.447449e-10,	566.469,	4.019444e-09
854.641,	1.24482,	0.0102389,	2,	679.191,	3.729474e-08,	679.489,	3.855737e-11,	679.414,	3.836648e-12,	679.116,	1.871847e-09,	679.265,	2.404784e-10,	679.34,	3.105407e-10,	679.563,	3.988605e-09
914.171,	0.965307,	-0.00233826,	2,	792.286,	3.743207e-08,	792.584,	3.370454e-11,	792.509,	4.015619e-12,	792.211,	6.578851e-09,	792.36,	2.518064e-10,	792.435,	3.036815e-10,	792.658,	4.045264e-09
973.803,	0.248412,	0.00599425,	2,	905.382,	3.749552e-08,	905.68,	5.354536e-11,	905.606,	3.305845e-12,	905.308,	1.930597e-09,	905.457,	2.093252e-10,	905.531,	3.61334e-10,	905.755,	3.97677e-09
1033.52,	1.44269,	0.0121307,	3,	1018.48,	3.745844e-08,	1018.77,	4.739682e-11,	1018.7,	3.31164e-12,	1018.4,	1.96358e-09,	1018.55,	1.978125e-10,	1018.625,	2.862321e-10,	1018.85,	3.992332e-09
1093.05,	0.767416,	-0.0199974,	3,	1131.57,	3.781367e-08,	1131.87,	3.080794e-11,	1131.8,	3.384874e-12,	1131.5,	3.456269e-09,	1131.65,	1.890006e-10,	1131.72,	2.843567e-10,	1131.94,	4.021636e-09
1152.68,	0.446265,	0.000535191,	3,	1244.67,	3.750246e-08,	1244.96,	4.590756e-11,	1244.89,	3.029865e-12,	1244.59,	1.986752e-09,	1244.74,	1.905497e-10,	1244.82,	3.662051e-10,	1245.04,	3.963076e-09
1212.39,	1.64065,	0.0439995,	4,	1357.76,	3.752806e-08,	1358.06,	4.284271e-11,	1357.99,	3.262117e-12,	1357.69,	2.003826e-09,	1357.84,	1.808904e-10,	1357.91,	2.786369e-10,	1358.14,	3.961618e-09
1271.92,	0.569541,	-0.00212571,	4,	1470.86,	3.721453e-08,	1471.15,	2.759195e-11,	1471.08,	2.960735e-12,	1470.78,	2.530574e-09,	1470.93,	1.727472e-10,	1471.01,	2.723531e-10,	1471.23,	3.944296e-09
1331.55,	0.644192,	0.000700655,	4,	1583.95,	3.728406e-08,	1584.25,	2.466781e-11,	1584.18,	2.723811e-12,	1583.88,	2.02788e-09,	1584.03,	1.698698e-10,	1584.1,	2.703532e-10,	1584.33,	3.895803e-09
1390.53,	1.57709,	0.00237806,	5,	1697.05,	3.764246e-08,	1697.35,	2.172726e-11,	1697.27,	2.906602e-12,	1696.97,	2.049257e-09,	1697.12,	1.67202e-10,	1697.2,	2.644861e-10,	1697.42,	3.905434e-09
1450.8,	0.371652,	-0.00122388,	5,	1810.14,	3.813145e-08,	1810.44,	2.161725e-11,	1810.37,	2.791466e-12,	1810.07,	2.057845e-09,	1810.22,	1.663871e-10,	1810.29,	2.678779e-10,	1810.52,	3.905359e-09
1510.42,	0.84177,	0.00273893,	5,	1923.24,	3.751332e-08,	1923.54,	3.416225e-11,	1923.46,	2.646857e-12,	1923.16,	2.068824e-09,	1923.31,	1.655704e-10,	1923.39,	2.789002e-10,	1923.61,	3.86592e-09
1701.74,	0.880375,	8.64461e-07,	6,	2036.33,	3.832786e-08,	2036.63,	2.36892e-11,	2036.56,	2.951184e-12,	2036.26,	2.070303e-09,	2036.41,	1.602202e-10,	2036.48,	3.301251e-10,	2036.7,	3.911551e-09
1897.24,	1.394982,	0.00250088,	7,	2149.43,	3.756444e-08,	2149.73,	2.106859e-11,	2149.65,	3.052089e-12,	2149.35,	2.10015e-09,	2149.5,	1.578012e-10,	2149.58,	2.682094e-10,	2149.8,	3.883381e-09
2098.24,	1.5854,	0.00250107,	7,	2262.52,	3.761648e-08,	2262.82,	1.938257e-11,	2262.75,	2.786104e-12,	2262.45,	2.107113e-09,	2262.6,	1.55594e-10,	2262.67,	2.587641e-10,	2262.9,	3.839233e-09
2292.28,	1.26998,	2.52605e-08,	8,	2375.62,	3.819691e-08,	2375.92,	1.925513e-11,	2375.84,	2.669375e-12,	2375.54,	2.102782e-09,	2375.69,	1.532267e-10,	2375.77,	2.591428e-10,	2375.99,	3.884623e-09
2458.23,	1.61601,	0.00500139,	9,	2488.71,	3.85462e-08,	2489.01,	2.078693e-11,	2488.94,	2.813195e-12,	2488.64,	2.101326e-09,	2488.79,	1.548833e-10,	2488.86,	4.083616e-10,	2489.09,	3.870941e-09
2659.23,	1.63915,	0.00500112,	9,	2601.81,	3.798588e-08,	2602.11,	2.033809e-11,	2602.03,	2.7329e-12,	2601.73,	2.092961e-09,	2601.88,	1.53029e-10,	2601.96,	4.133009e-10,	2602.18,	3.893176e-09
2851.32,	1.36579,	4.44861e-07,	10,	2714.9,	3.739748e-08,	2715.2,	1.986261e-11,	2715.13,	2.797298e-12,	2714.83,	2.104927e-09,	2714.98,	1.507506e-10,	2715.05,	3.838712e-10,	2715.28,	3.838785e-09
3017.05,	1.64726,	0.010002,	11,	2828,	3.805871e-08,	2828.3,	1.920897e-11,	2828.22,	2.791671e-12,	2827.92,	2.131427e-09,	2828.07,	1.484509e-10,	2828.15,	2.571551e-10,	2828.37,	3.859968e-09
3218.05,	1.68115,	0.0100014,	11,	2941.09,	3.768911e-08,	2941.39,	1.830233e-11,	2941.32,	2.499438e-12,	2941.02,	2.13909e-09,	2941.17,	1.48059e-10,	2941.24,	2.567006e-10,	2941.47,	3.842405e-09
3408.08,	1.42102,	1.16962e-06,	12,	3054.19,	3.730571e-08,	3054.49,	1.984862e-11,	3054.41,	2.419281e-12,	3054.11,	2.105397e-09,	3054.26,	1.487401e-10,	3054.34,	5.401004e-10,	3054.56,	3.846832e-09
3609.08,	1.321249,	9.78897e-07,	12,	3167.28,	3.811327e-08,	3167.58,	1.976269e-11,	3167.51,	2.624269e-12,	3167.21,	2.097059e-09,	3167.36,	1.468863e-10,	3167.43,	5.731413e-10,	3167.66,	3.887731e-09
3774.61,	1.70864,	0.0150022,	13,	3280.38,	3.731287e-08,	3280.68,	1.999294e-11,	3280.6,	2.730409e-12,	3280.3,	2.093243e-09,	3280.45,	1.457405e-10,	3280.53,	5.700425e-10,	3280.75,	3.847086e-09
3963.47,	1.4713,	6.35588e-07,	14,	3393.47,	3.798593e-08,	3393.77,	1.863665e-11,	3393.7,	2.525725e-12,	3393.4,	2.139068e-09,	3393.55,	1.445981e-10,	3393.62,	2.620855e-10,	3393.85,	3.864812e-09
4164.47,	1.3602,	9.40752e-07,	14,	3506.57,	3.734304e-08,	3506.87,	1.858396e-11,	3506.79,	2.589577e-12,	3506.49,	2.155927e-09,	3506.64,	1.417555e-10,	3506.72,	2.521242e-10,	3506.94,	3.802196e-09
[...]
,	,	,	,	3958.95,	3.752982e-08,	3959.25,	1.872555e-11,	3959.17,	2.773288e-12,	3958.88,	2.137902e-09,	3959.03,	1.425975e-10,	3959.1,	2.872695e-10,	3959.32,	3.838191e-09
,	,	,	,	4072.05,	3.719508e-08,	4072.34,	1.815728e-11,	4072.27,	2.389914e-12,	4071.97,	2.159945e-09,	4072.12,	1.349566e-10,	4072.19,	2.547708e-10,	4072.42,	3.832804e-09
,	,	,	,	4187.15,	3.818957e-08,	4187.44,	1.825907e-11,	4187.37,	2.03679e-12,	4187.07,	2.187187e-09,	4187.22,	1.31745e-10,	4187.3,	2.482166e-10,	4187.52,	3.81565e-09
,	,	,	,	4300.24,	3.755362e-08,	4300.54,	2.033239e-11,	4300.46,	2.372354e-12,	4300.17,	2.081423e-09,	4300.32,	1.32201e-10,	4300.39,	8.751113e-10,	4300.61,	3.8165e-09
,	,	,	,	4413.34,	3.677605e-08,	4413.63,	1.985221e-11,	4413.56,	2.333806e-12,	4413.26,	2.073665e-09,	4413.41,	1.301561e-10,	4413.49,	8.854529e-10,	4413.71,	3.818193e-09
,	,	,	,	4526.43,	3.725012e-08,	4526.73,	1.945255e-11,	4526.65,	2.475697e-12,	4526.36,	2.105589e-09,	4526.51,	1.320115e-10,	4526.58,	4.851552e-10,	4526.8,	3.872528e-09
,	,	,	,	4639.53,	3.7432e-08,	4639.83,	1.803506e-11,	4639.75,	2.306102e-12,	4639.45,	2.173518e-09,	4639.6,	1.2944e-10,	4639.68,	2.609688e-10,	4639.9,	3.812903e-09
,	,	,	,	4752.62,	3.744351e-08,	4752.92,	1.79445e-11,	4752.85,	2.270252e-12,	4752.55,	2.194074e-09,	4752.7,	1.319171e-10,	4752.77,	2.503271e-10,	4752.99,	3.841775e-09
,	,	,	,	4865.72,	3.748533e-08,	4866.02,	1.751291e-11,	4865.94,	2.167546e-12,	4865.64,	2.192424e-09,	4865.79,	1.311195e-10,	4865.87,	2.471161e-10,	4866.09,	3.828128e-09
,	,	,	,	4978.81,	3.757368e-08,	4979.11,	1.798957e-11,	4979.04,	2.327369e-12,	4978.74,	2.213369e-09,	4978.89,	1.276951e-10,	4978.96,	2.451502e-10,	4979.18,	3.761981e-09
,	,	,	,	5091.91,	3.700458e-08,	5092.2,	1.797905e-11,	5092.13,	2.343868e-12,	5091.83,	2.209814e-09,	5091.98,	1.318557e-10,	5092.06,	2.440509e-10,	5092.28,	3.724916e-09
,	,	,	,	5205,	3.729687e-08,	5205.3,	1.708822e-11,	5205.23,	2.343524e-12,	5204.93,	2.216895e-09,	5205.08,	1.303605e-10,	5205.15,	2.393752e-10,	5205.375,	3.729851e-09
,	,	,	,	5318.1,	3.872181e-09,	5318.4,	5.984411e-11,	5318.32,	1.157839e-09,	5318.02,	1.848133e-09,	5318.17,	7.000014e-08,	5318.25,	1.533105e-08,	5318.47,	3.764027e-09
,	,	,	,	5431.19,	1.140672e-10,	5431.49,	2.507536e-11,	5431.42,	6.102889e-08,	5431.12,	1.646738e-09,	5431.27,	2.04729e-09,	5431.34,	6.355919e-10,	5431.57,	3.026991e-09
,	,	,	,	5544.29,	3.472092e-08,	5544.59,	2.042848e-11,	5544.51,	4.343601e-09,	5544.21,	2.175422e-09,	5544.36,	2.334833e-10,	5544.44,	2.893146e-10,	5544.66,	3.801111e-09
,	,	,	,	5657.38,	3.638078e-08,	5657.68,	1.933648e-11,	5657.61,	1.697331e-09,	5657.31,	2.250033e-09,	5657.46,	1.73024e-10,	5657.53,	2.670696e-10,	5657.76,	3.853118e-09
,	,	,	,	5770.48,	8.107395e-10,	5770.78,	2.161416e-11,	5770.7,	5.989384e-08,	5770.4,	1.912119e-09,	5770.55,	4.051821e-10,	5770.63,	3.830754e-10,	5770.85,	3.010909e-09
,	,	,	,	5883.57,	1.257679e-10,	5883.87,	2.175274e-11,	5883.8,	6.253862e-08,	5883.5,	2.020688e-09,	5883.65,	3.367205e-10,	5883.72,	3.437278e-10,	5883.95,	2.944848e-09
,	,	,	,	5996.67,	8.02637e-11,	5996.97,	2.158599e-11,	5996.89,	6.320072e-08,	5996.59,	2.140789e-09,	5996.74,	2.877598e-10,	5996.82,	3.164413e-10,	5997.04,	2.965934e-09
,	,	,	,	6109.76,	3.83789e-08,	6110.06,	1.871562e-11,	6109.99,	2.584685e-10,	6109.69,	2.178849e-09,	6109.84,	1.380192e-10,	6109.91,	2.485455e-10,	6110.13,	3.857542e-09
,	,	,	,	6166.59,	3.803687e-08,	6166.89,	1.781348e-11,	6166.82,	1.510799e-10,	6166.52,	2.187643e-09,	6166.67,	1.355372e-10,	6166.74,	2.475061e-10,	6166.96,	3.813561e-09

File: OERonPt_RnD1_2.csv
ixdat version = 0.2.3
name = 2022-04-27 13_48_01 OER_repetition_2 AND 2022-04-27 13_48_01 OER_repetition_2_01_01_CVA_DUSB0_C01.mpt AND 2022-04-27 13_48_01 OER_repetition_2_01_02_CP_DUSB0_C01.mpt
technique = EC-MS
tstamp = 1651060081.0
backend_name = BackendBase(none, address=none)
id = 35
timecol 'time/s' for: 'Ewe/V' and 'raw_current' and 'selector'
timecol 'C1M4 time [s]' for: 'M4'
timecol 'C5M44 time [s]' for: 'M44'
timecol 'C4M40 time [s]' for: 'M40'
timecol 'C0M2 time [s]' for: 'M2'
timecol 'C2M28 time [s]' for: 'M28'
timecol 'C3M32 time [s]' for: 'M32'
timecol 'C6M18 time [s]' for: 'M18'
aliases = {"M2": ["M2 [A]"], "M4": ["M4 [A]"], "M28": ["M28 [A]"], "M32": ["M32 [A]"], "M40": ["M40 [A]"], "M44": ["M44 [A]"], "M18": ["M18 [A]"], "t": ["time/s"], "raw_potential": ["Ewe/V"], "raw_current": ["I/mA", "<I>/mA"], "cycle": ["cycle number"]}
N_header_lines = 18

time/s,	Ewe/V,	raw_current,	selector,	C1M4 time [s],	M4,	C5M44 time [s],	M44,	C4M40 time [s],	M40,	C0M2 time [s],	M2,	C2M28 time [s],	M28,	C3M32 time [s],	M32,	C6M18 time [s],	M18
1136.0,	1.12862,	-2.07418e-05,	0,	0.600189,	9.840486e-12,	0.898379,	7.848664e-11,	0.824332,	8.11942e-10,	0.526142,	1.74253e-09,	0.675237,	7.747616e-08,	0.749284,	2.004246e-08,	0.973426,	8.243885e-09
1198.45,	1.223526,	-0.000405018,	0,	105.818,	2.854733e-08,	106.116,	7.165615e-11,	106.042,	2.304525e-10,	105.744,	1.905467e-09,	105.893,	1.004898e-08,	105.967,	3.993619e-09,	106.191,	4.908773e-09
1254.52,	0.101973,	-0.0125179,	0,	211.036,	3.500643e-08,	211.334,	3.848578e-11,	211.26,	1.434389e-11,	210.962,	1.850618e-09,	211.111,	7.94487e-10,	211.185,	5.512443e-10,	211.409,	4.685542e-09
1309.97,	1.02802,	0.0065881,	0,	316.254,	3.404949e-08,	316.552,	2.556759e-11,	316.478,	8.827042e-12,	316.18,	1.860562e-09,	316.329,	5.592361e-10,	316.403,	4.322371e-10,	316.627,	4.30324e-09
1365.03,	1.27149,	-0.000524933,	1,	421.472,	3.413092e-08,	421.77,	2.33291e-11,	421.696,	8.082561e-12,	421.398,	1.899165e-09,	421.547,	4.605138e-10,	421.621,	3.916491e-10,	421.845,	4.136253e-09
1421.1,	0.149912,	-0.00839747,	1,	526.69,	2.455697e-11,	526.988,	7.386319e-11,	526.913,	8.335183e-10,	526.615,	1.524082e-09,	526.764,	7.883673e-08,	526.839,	2.066137e-08,	527.062,	2.621341e-09
1476.55,	0.980032,	0.00606131,	1,	631.908,	5.139847e-10,	632.206,	8.790183e-11,	632.131,	8.087044e-10,	631.833,	1.423222e-09,	631.982,	7.633738e-08,	632.057,	2.013788e-08,	632.28,	1.831151e-09
1531.61,	1.31946,	-0.00047316,	2,	737.126,	3.324844e-08,	737.424,	3.387279e-11,	737.349,	1.042719e-11,	737.051,	1.765506e-09,	737.2,	6.071531e-10,	737.275,	4.626333e-10,	737.498,	3.805662e-09
1587.68,	0.197894,	-0.00524947,	2,	842.343,	9.143185e-12,	842.641,	7.172014e-11,	842.566,	8.088787e-10,	842.268,	1.443493e-09,	842.417,	7.780724e-08,	842.492,	2.006493e-08,	842.715,	2.186852e-09
1643.13,	0.932117,	0.00594783,	2,	947.5625,	3.269435e-10,	947.861,	7.281079e-11,	947.786,	7.889414e-10,	947.487,	1.367512e-09,	947.636,	7.535522e-08,	947.711,	1.98664e-08,	947.934,	1.460174e-09
1698.19,	1.36745,	-0.00040689,	3,	1052.78,	3.302327e-08,	1053.08,	2.838421e-11,	1053,	9.45646e-12,	1052.7,	1.704692e-09,	1052.85,	4.454745e-10,	1052.93,	3.950081e-10,	1053.15,	3.674568e-09
1754.26,	0.245875,	-0.00468319,	3,	1158,	3.307327e-08,	1158.3,	2.117636e-11,	1158.22,	7.285253e-12,	1157.92,	1.76061e-09,	1158.07,	2.851206e-10,	1158.15,	3.185883e-10,	1158.37,	3.666649e-09
1809.71,	0.884096,	0.00587356,	3,	1263.21,	3.304248e-08,	1263.51,	2.268801e-11,	1263.44,	5.986715e-12,	1263.14,	2.12038e-09,	1263.29,	2.3644e-10,	1263.36,	2.850121e-10,	1263.59,	3.674661e-09
1865.09,	1.4091,	-0.00034689,	4,	1368.43,	3.310467e-08,	1368.73,	3.515744e-11,	1368.66,	5.678085e-12,	1368.36,	1.823426e-09,	1368.51,	2.186994e-10,	1368.58,	3.080424e-10,	1368.81,	3.678724e-09
1921.16,	0.287591,	-0.0049847,	4,	1473.65,	3.315292e-08,	1473.95,	2.656524e-11,	1473.875,	5.48902e-12,	1473.58,	1.875243e-09,	1473.73,	1.93855e-10,	1473.8,	2.662222e-10,	1474.02,	3.69267e-09
1976.6,	0.842141,	0.00467659,	4,	1578.87,	3.335529e-08,	1579.17,	2.360131e-11,	1579.09,	5.328018e-12,	1578.79,	1.875724e-09,	1578.94,	1.861984e-10,	1579.02,	2.659251e-10,	1579.24,	3.644294e-09
2154.31,	0.904325,	2.92279e-07,	5,	1684.09,	3.253743e-08,	1684.38,	3.811343e-11,	1684.31,	5.279981e-12,	1684.01,	1.837796e-09,	1684.16,	1.852136e-10,	1684.24,	2.350319e-09,	1684.46,	3.705474e-09
2336.75,	1.38085,	0.00250195,	6,	1789.31,	3.337844e-08,	1789.6,	1.929323e-11,	1789.53,	4.405906e-12,	1789.23,	1.920945e-09,	1789.38,	1.724263e-10,	1789.45,	2.555084e-10,	1789.68,	3.647739e-09
2523.75,	1.578143,	0.002501566,	6,	1894.52,	3.352558e-08,	1894.82,	2.159197e-11,	1894.75,	4.419787e-12,	1894.45,	1.901903e-09,	1894.6,	1.662223e-10,	1894.67,	2.668908e-10,	1894.89,	3.656357e-09
2704.87,	1.34906,	1.62737e-06,	7,	1999.74,	3.343612e-08,	2000.04,	2.041698e-11,	1999.96,	4.528756e-12,	1999.67,	1.934082e-09,	1999.82,	1.611607e-10,	1999.89,	2.482431e-10,	2000.11,	3.592509e-09
2880.03,	1.38206,	0.00500173,	8,	2104.96,	3.354453e-08,	2105.26,	1.866919e-11,	2105.18,	4.130327e-12,	2104.88,	1.956163e-09,	2105.03,	1.579639e-10,	2105.11,	2.488313e-10,	2105.33,	3.6241e-09
3048.85,	1.62724,	0.00500166,	8,	2210.18,	3.354794e-08,	2210.47,	1.897516e-11,	2210.4,	4.261901e-12,	2210.1,	1.955318e-09,	2210.25,	1.539961e-10,	2210.33,	2.431477e-10,	2210.55,	3.63536e-09
3227.81,	1.45044,	1.51293e-06,	9,	2315.39,	3.374713e-08,	2315.69,	2.024823e-11,	2315.62,	4.099142e-12,	2315.32,	1.961731e-09,	2315.47,	1.535415e-10,	2315.54,	2.401118e-10,	2315.77,	3.610551e-09
3414.81,	1.36205,	1.51293e-06,	9,	2420.61,	3.368439e-08,	2420.91,	1.924305e-11,	2420.84,	4.108641e-12,	2420.54,	1.958108e-09,	2420.69,	1.528326e-10,	2420.76,	3.064567e-10,	2420.98,	3.641509e-09
3572.56,	1.66497,	0.0100014,	10,	2525.83,	3.355856e-08,	2526.13,	1.817202e-11,	2526.05,	3.751155e-12,	2525.76,	1.965198e-09,	2525.9,	1.496202e-10,	2525.98,	3.107044e-10,	2526.2,	3.616405e-09
3759.56,	1.6773,	0.0100017,	10,	2631.05,	3.380609e-08,	2631.35,	1.765251e-11,	2631.27,	3.830979e-12,	2630.97,	1.995522e-09,	2631.12,	1.49233e-10,	2631.2,	2.400015e-10,	2631.42,	3.576626e-09
3935.6,	1.41833,	1.05519e-06,	11,	2736.27,	3.390132e-08,	2736.56,	1.720575e-11,	2736.49,	4.086698e-12,	2736.19,	1.993946e-09,	2736.34,	1.452668e-10,	2736.41,	2.379056e-10,	2736.64,	3.558476e-09
4092.47,	1.68412,	0.01500252,	12,	2841.48,	3.404568e-08,	2841.78,	1.751362e-11,	2841.71,	3.988113e-12,	2841.41,	2.004796e-09,	2841.56,	1.456742e-10,	2841.63,	2.342774e-10,	2841.86,	3.591206e-09
4279.47,	1.70203,	0.0150022,	12,	2946.7,	3.388247e-08,	2947.0,	1.825178e-11,	2946.92,	3.715076e-12,	2946.63,	1.987478e-09,	2946.78,	1.436541e-10,	2946.85,	3.772145e-10,	2947.07,	3.618418e-09
4454.02,	1.46606,	1.55108e-06,	13,	3051.92,	3.370755e-08,	3052.22,	1.790318e-11,	3052.14,	3.618295e-12,	3051.85,	1.988911e-09,	3051.99,	1.428026e-10,	3052.07,	3.780582e-10,	3052.29,	3.548248e-09
4641.02,	1.4057,	1.32221e-06,	13,	3157.14,	3.379224e-08,	3157.43,	1.745135e-11,	3157.36,	3.630966e-12,	3157.06,	1.986312e-09,	3157.21,	1.359843e-10,	3157.29,	3.78815e-10,	3157.51,	3.570306e-09
4798.23,	1.72068,	0.0200017,	14,	3262.36,	3.390458e-08,	3262.65,	1.64424e-11,	3262.58,	3.401303e-12,	3262.28,	2.03243e-09,	3262.43,	1.330537e-10,	3262.5,	2.329446e-10,	3262.73,	3.578383e-09
[...]
,	,	,	,	3683.23,	3.396252e-08,	3683.53,	1.778311e-11,	3683.45,	3.25424e-12,	3683.15,	1.984136e-09,	3683.3,	1.329201e-10,	3683.38,	5.239961e-10,	3683.6,	3.564221e-09
,	,	,	,	3788.44,	3.523929e-08,	3788.74,	1.72832e-11,	3788.67,	3.263285e-12,	3788.37,	1.997285e-09,	3788.52,	1.352792e-10,	3788.59,	2.875429e-10,	3788.82,	3.549067e-09
,	,	,	,	3893.66,	3.543207e-08,	3893.96,	1.680669e-11,	3893.89,	3.596518e-12,	3893.59,	2.026427e-09,	3893.74,	1.355118e-10,	3893.81,	2.336808e-10,	3894.04,	3.570384e-09
,	,	,	,	3998.88,	3.435101e-08,	3999.18,	1.661731e-11,	3999.1,	3.174813e-12,	3998.81,	2.045149e-09,	3998.95,	1.312321e-10,	3999.03,	2.302128e-10,	3999.25,	3.563457e-09
,	,	,	,	4104.1,	3.378734e-08,	4104.4,	1.689259e-11,	4104.32,	2.874941e-12,	4104.02,	1.986454e-09,	4104.17,	1.345123e-10,	4104.25,	6.342168e-10,	4104.47,	3.530647e-09
,	,	,	,	4209.32,	3.36385e-08,	4209.61,	1.81129e-11,	4209.54,	3.147592e-12,	4209.24,	1.971374e-09,	4209.39,	1.329892e-10,	4209.46,	6.609742e-10,	4209.69,	3.607568e-09
,	,	,	,	4314.53,	3.381111e-08,	4314.83,	1.834581e-11,	4314.76,	3.23739e-12,	4314.46,	1.970761e-09,	4314.61,	1.369913e-10,	4314.68,	6.673829e-10,	4314.91,	3.5829e-09
,	,	,	,	4419.75,	3.392583e-08,	4420.05,	1.685362e-11,	4419.98,	3.588769e-12,	4419.68,	2.027016e-09,	4419.83,	1.346364e-10,	4419.9,	2.428344e-10,	4420.125,	3.546672e-09
,	,	,	,	4524.97,	3.422185e-08,	4525.27,	1.690091e-11,	4525.19,	3.391403e-12,	4524.9,	2.06022e-09,	4525.05,	1.358747e-10,	4525.12,	2.358274e-10,	4525.34,	3.573099e-09
,	,	,	,	4630.19,	3.410555e-08,	4630.49,	1.663085e-11,	4630.41,	3.122259e-12,	4630.11,	2.061178e-09,	4630.26,	1.293412e-10,	4630.34,	2.306365e-10,	4630.56,	3.528738e-09
,	,	,	,	4735.4,	3.373559e-08,	4735.7,	1.822244e-11,	4735.63,	2.967997e-12,	4735.33,	1.965756e-09,	4735.48,	1.332219e-10,	4735.55,	7.937091e-10,	4735.78,	3.517467e-09
,	,	,	,	4840.62,	3.348165e-08,	4840.92,	1.778554e-11,	4840.85,	2.776638e-12,	4840.55,	1.936318e-09,	4840.7,	1.353122e-10,	4840.77,	8.166491e-10,	4841,	3.523033e-09
,	,	,	,	4945.84,	3.379023e-08,	4946.14,	1.766463e-11,	4946.06,	2.994219e-12,	4945.77,	1.917108e-09,	4945.91,	1.313714e-10,	4945.99,	8.246366e-10,	4946.21,	3.49374e-09
,	,	,	,	5051.06,	3.386092e-08,	5051.36,	1.668569e-11,	5051.28,	3.175474e-12,	5050.98,	2.021683e-09,	5051.13,	1.348227e-10,	5051.21,	2.416493e-10,	5051.43,	3.568292e-09
,	,	,	,	5156.28,	3.400672e-08,	5156.58,	1.671041e-11,	5156.5,	2.904898e-12,	5156.2,	2.041321e-09,	5156.35,	1.310378e-10,	5156.43,	2.320587e-10,	5156.65,	3.502087e-09
,	,	,	,	5261.49,	3.411817e-08,	5261.79,	1.629737e-11,	5261.72,	3.192038e-12,	5261.42,	2.053549e-09,	5261.57,	1.312035e-10,	5261.64,	2.288312e-10,	5261.87,	3.522722e-09
,	,	,	,	5366.71,	3.538116e-08,	5367.01,	1.654826e-11,	5366.94,	2.932497e-12,	5366.64,	2.047948e-09,	5366.79,	1.316142e-10,	5366.86,	2.289937e-10,	5367.09,	3.454885e-09
,	,	,	,	5471.93,	3.412062e-08,	5472.23,	1.658376e-11,	5472.15,	2.989677e-12,	5471.86,	2.058141e-09,	5472.01,	1.298871e-10,	5472.08,	2.230641e-10,	5472.3,	3.478225e-09
,	,	,	,	5577.15,	3.436518e-08,	5577.45,	1.598622e-11,	5577.37,	3.160353e-12,	5577.07,	2.069643e-09,	5577.22,	1.280813e-10,	5577.3,	2.249697e-10,	5577.52,	3.534773e-09
,	,	,	,	5682.37,	3.436151e-08,	5682.66,	1.686974e-11,	5682.59,	3.36213e-12,	5682.29,	2.074605e-09,	5682.44,	1.334444e-10,	5682.52,	2.220213e-10,	5682.74,	3.491533e-09
,	,	,	,	5743.7,	3.430041e-08,	5743.99,	1.662531e-11,	5743.92,	2.91135e-12,	5743.62,	2.071756e-09,	5743.77,	1.322537e-10,	5743.85,	2.22753e-10,	5744.07,	3.521432e-09