Folder: application-notes-data/Benchmarking/data

Note: Benchmarking/README.md
## This script enables reproducing the figures from the Spectro Inlets Technical Notes 1 and 2 (Gas Exchange and System Benchmarking)


### How to work with this script?

In the top part of the script select which data to load, which part of the data treatment to execute and how and where to save the resulting plots. 

To use test data included with the script, select following settings: 
```python
DATA_SOURCE = "ixdat" 
data_directory = THIS_DIR / "data"
```

Select the other settings according to how to plot the data.

### Plot your own data
If you want to plot your benchmarking data, first the data needs to be imported using `DATA_SOURCE="raw". 
Select the `DATA_DIRECTORY` where your data is saved. If you provide the full path using Windows it can be necessary to give the path as a raw string, i.e. use following syntax: `r"C:\Users\MyUser\MyFolder"`

The first time you run the analysis, you will need to find the time spans for the relevant parts of the data (i.e. CVs, the HER sequence, the gas exchange sequence). This can for example be done by running the script (which might result in error messages that can be ignored for now), and then calling `full_data = main()` in the Python console. This will save the imported dataset in a variable that can then be called directly from the console. 

Now, use `full_data.plot_measurement(tspan=[t1, t2])` to plot the experiment over different time spans. If you use an interactive Python plot, you can leftclick on the plot to get the time printed to the console. You can also left click at one point and right click at another point and then get the time span printed to the console. Double clicking will remove the marker in the plot. 

Once you have found the relevant time spans, go through the script and replace the time span whereever `tspan` is given accordingly. 

The script can automatically detect the onset of a decay. However, the algorithm is not very robust with regards to noise in the data. This means that it can be necessary to adjust the "gradient_cutoff" manually. To help with this, when executed, the script will plot (but not save), the gradient of the signal of interest vs. time. For defining the onset of the decay, choose an absolute cutoff value that is high enough to distinguish from noise. Note that for noisy data, selecting the approprioate cutoff value can be challenging.

Happy analysing!

File: 2022-01-31 11_11_16 test benchmarking 3_01_01_CVA_DUSB0_C01.mpt
EC-Lab ASCII FILE
Nb header lines : 66

Cyclic Voltammetry Advanced

Run on channel : 1 (SN 5836)
User :
Electrode connection : standard
Ewe ctrl range : min = -5,00 V, max = 5,00 V
Ewe,I filtering : 50 kHz
Safety Limits :
	Do not start on E overload
Channel : Grounded
Acquisition started on : 01/31/2022 11:19:17
Saved on :
	File : 2022-01-31 11_11_16 test benchmarking 3_01_01_CVA_DUSB0_C01.mpr
	Directory : C:\Users\Spectro Inlets Lab_1\Dropbox (Spectro Inlets)\Development\Data\New Benchmarking Procedure\2022-01-31 11_11_16 test benchmarking 3\
	Host : 192.168.1.105
Device : SP-200 (SN 0763)
Address : USB
EC-Lab for windows v11.27 (software)
Internet server v11.25 (firmware)
Command interpretor v11.27 (firmware)
Electrode material :
Initial state :
Electrolyte :
Comments :
Cable : standard
Electrode surface area : 0,001 cm²
Characteristic mass : 0,001 g
Equivalent Weight : 0,000 g/eq.
Density : 0,000 g/cm3
Record Ece
Cycle Definition : Charge/Discharge alternance
Ei (V)              0,000
vs.                 Eoc
ti (h:m:s)          0:00:10,0000
dti (s)             1,0000
dE/dt               20,000
dE/dt unit          mV/s
E1 (V)              1,700
vs.                 Ref
t1 (h:m:s)          0:00:0,0000
dt1 (s)             0,1000
Step percent        80
N                   20
E range min (V)     -5,000
E range max (V)     5,000
I Range             100 µA
I Range min         Unset
I Range max         Unset
I Range init        Unset
Bandwidth           1
E2 (V)              0,005
vs.                 Ref
t2 (h:m:s)          0:00:0,0000
dt2 (s)             0,1000
nc cycles           4
nr                  1
Reverse Scan        0
Ef (V)              0,000
vs.                 Eoc
tf (h:m:s)          0:00:0,0000
dtf (s)             0,1000

mode	ox/red	error	control changes	Ns changes	counter inc.	time/s	control/V	Ewe/V	<I>/mA	cycle number	(Q-Qo)/C	I Range	<Ece>/V	P/W	Ewe-Ece/V
2	1	1	0	1	0	0,000000000000000E+000	9,3164051E-001	9,3294942E-001	1,049653801601380E-004	1,000000000000000E+000	0,0000000E+000	41	1,2230860E+000	9,7927391E-008	-2,9013658E-001
2	1	0	0	0	0	2,210879944148473E+001	1,1736181E+000	1,1749479E+000	4,369174152982370E-003	1,000000000000000E+000	2,3850431E-005	41	1,0081115E+000	5,1335519E-006	1,6683638E-001
2	1	0	1	0	0	3,630169908294192E+001	1,4574766E+000	1,4588386E+000	8,683448513341588E-003	1,000000000000000E+000	1,2447783E-004	41	7,5072604E-001	1,2667750E-005	7,0811254E-001
2	1	0	0	0	0	4,993729873847769E+001	1,6697669E+000	1,6711452E+000	2,920436454185180E-002	1,000000000000000E+000	4,9973268E-004	41	3,4113663E-001	4,8804734E-005	1,3300085E+000
2	1	0	1	0	0	6,413009837993741E+001	1,3859124E+000	1,3872303E+000	-1,356117815988229E-004	1,000000000000000E+000	5,4901710E-004	41	8,9495659E-001	-1,8812477E-007	4,9227369E-001
2	0	0	0	0	0	7,832299802139460E+001	1,1020542E+000	1,1033678E+000	-8,178476614787182E-004	1,000000000000000E+000	5,4255535E-004	41	9,4235998E-001	-9,0238677E-007	1,6100782E-001
2	0	0	0	0	0	9,251589766285178E+001	8,1819510E-001	8,1950951E-001	-6,397654520688689E-003	1,000000000000000E+000	5,0843973E-004	41	1,1190405E+000	-5,2429386E-006	-2,9953098E-001
2	0	0	1	0	0	1,067086973043115E+002	5,3434092E-001	5,3567958E-001	-3,385726665424034E-003	1,000000000000000E+000	3,6191021E-004	41	1,3056623E+000	-1,8136647E-006	-7,6998270E-001
2	0	0	0	0	0	1,209015969457687E+002	2,5048271E-001	2,5186971E-001	-5,797705341440917E-003	1,000000000000000E+000	3,0766989E-004	41	1,4386880E+000	-1,4602664E-006	-1,1868184E+000
2	1	0	1	0	1	1,348750965927684E+002	3,8988285E-002	4,0417690E-002	1,499779761237111E-002	1,000000000000000E+000	1,1720004E-004	41	1,1194396E+000	6,0617634E-007	-1,0790219E+000
2	1	0	1	0	1	1,490679962342256E+002	3,2284629E-001	3,2421124E-001	5,949915057643909E-004	1,000000000000000E+000	1,5888309E-004	41	1,0804698E+000	1,9290293E-007	-7,5625861E-001
2	0	0	0	0	1	1,632608958756828E+002	6,0670537E-001	6,0804915E-001	-1,833057801654814E-005	1,000000000000000E+000	1,5313145E-004	41	1,1454779E+000	-1,1145892E-008	-5,3742874E-001
2	1	0	0	0	1	1,774536955171425E+002	8,9055979E-001	8,9189398E-001	3,110281224098000E-003	1,000000000000000E+000	1,7243538E-004	41	9,8425353E-001	2,7740411E-006	-9,2359543E-002
2	1	0	1	0	1	1,914166951644074E+002	1,1698203E+000	1,1711618E+000	6,487846122954777E-003	2,000000000000000E+000	2,4598770E-004	41	7,8705335E-001	7,5983176E-006	3,8410842E-001
2	1	0	1	0	1	2,056095948058646E+002	1,4536772E+000	1,4550538E+000	7,857711022472652E-003	2,000000000000000E+000	3,5073078E-004	41	6,9421273E-001	1,1433393E-005	7,6084107E-001
2	1	0	1	0	1	2,192351944616530E+002	1,6737664E+000	1,6751497E+000	2,903793378361395E-002	2,000000000000000E+000	6,8522443E-004	41	3,5940003E-001	4,8642887E-005	1,3157496E+000
2	1	0	0	0	1	2,334279941031127E+002	1,3899091E+000	1,3912244E+000	-1,492937303007017E-004	2,000000000000000E+000	7,3194911E-004	41	9,0831214E-001	-2,0770108E-007	4,8291224E-001
2	0	0	0	0	1	2,476208937445699E+002	1,1060518E+000	1,1073738E+000	-8,171291236584860E-004	2,000000000000000E+000	7,2526361E-004	41	9,5269042E-001	-9,0486742E-007	1,5468341E-001
2	0	0	1	0	1	2,618137933860271E+002	8,2219499E-001	8,2350439E-001	-6,564702803009644E-003	2,000000000000000E+000	6,9093151E-004	41	1,1298687E+000	-5,4060615E-006	-3,0636436E-001
2	0	0	0	0	1	2,760065930274868E+002	5,3833789E-001	5,3967202E-001	-2,250463702576019E-003	2,000000000000000E+000	5,4089847E-004	41	1,2981088E+000	-1,2145123E-006	-7,5843680E-001
2	0	0	0	0	1	2,901994926689440E+002	2,5448027E-001	2,5583154E-001	-4,942769545908061E-003	2,000000000000000E+000	5,0248357E-004	41	1,4117815E+000	-1,2645163E-006	-1,1559501E+000
2	1	0	1	0	0	3,041729923159437E+002	3,4991134E-002	3,6416322E-002	2,064760630182402E-002	2,000000000000000E+000	3,2527526E-004	41	1,0019838E+000	7,5190985E-007	-9,6556747E-001
2	1	0	0	0	0	3,183658919574009E+002	3,1884873E-001	3,2022125E-001	1,323473102109111E-003	2,000000000000000E+000	3,7925915E-004	41	1,0121599E+000	4,2380421E-007	-6,9193870E-001
2	0	0	0	0	0	3,325587915988581E+002	6,0270548E-001	6,0403425E-001	-4,892776631069379E-005	2,000000000000000E+000	3,7628203E-004	41	1,0751659E+000	-2,9554046E-008	-4,7113162E-001
2	1	0	0	0	0	3,467515912403178E+002	8,8656265E-001	8,8792235E-001	3,088779512868404E-003	2,000000000000000E+000	3,9284973E-004	41	9,4379276E-001	2,7425963E-006	-5,5870414E-002
2	1	0	1	0	0	3,607145908875827E+002	1,1658220E+000	1,1671692E+000	5,766935433871773E-003	3,000000000000000E+000	4,6223041E-004	41	7,8581667E-001	6,7309893E-006	3,8135254E-001
2	1	0	0	0	0	3,749074905290399E+002	1,4496807E+000	1,4510506E+000	6,870750599523606E-003	3,000000000000000E+000	5,5330381E-004	41	7,1519458E-001	9,9698073E-006	7,3585606E-001
2	1	0	1	0	0	3,885330901848283E+002	1,6777631E+000	1,6791252E+000	3,657370536267135E-002	3,000000000000000E+000	9,0485543E-004	41	2,5110513E-001	6,1411833E-005	1,4280200E+000
2	0	0	0	0	0	4,027258898262880E+002	1,3939086E+000	1,3952558E+000	-1,716742317829376E-004	3,000000000000000E+000	9,6153130E-004	41	9,1568166E-001	-2,3952947E-007	4,7957414E-001
2	0	0	1	0	0	4,169187894677452E+002	1,1100502E+000	1,1113696E+000	-8,210931700542478E-004	3,000000000000000E+000	9,5458847E-004	41	9,5961845E-001	-9,1253798E-007	1,5175116E-001
[...]
2	1	0	0	0	1	5,442053862522152E+002	1,4456812E+000	1,4470601E+000	6,339342984638494E-003	4,000000000000000E+000	7,8262197E-004	41	7,2682470E-001	9,1734100E-006	7,2023541E-001
2	1	0	0	0	1	5,578309859080036E+002	1,6817623E+000	1,6831653E+000	4,439537056247933E-002	4,000000000000000E+000	1,1393814E-003	41	1,3579386E-001	7,4724747E-005	1,5473714E+000
2	0	0	1	0	1	5,720237855494634E+002	1,3979053E+000	1,3992599E+000	-1,856944314870142E-004	4,000000000000000E+000	1,2064908E-003	41	9,1968489E-001	-2,5983476E-007	4,7957504E-001
2	0	0	1	0	1	5,862166851909205E+002	1,1140479E+000	1,1154059E+000	-8,187211457443963E-004	4,000000000000000E+000	1,1994366E-003	41	9,6344769E-001	-9,1320641E-007	1,5195823E-001
2	0	0	0	0	1	6,004095848323777E+002	8,3019096E-001	8,3152598E-001	-6,249082455791422E-003	4,000000000000000E+000	1,1661103E-003	41	1,1324595E+000	-5,1962743E-006	-3,0093354E-001
2	0	0	1	0	1	6,146023844738374E+002	5,4633385E-001	5,4768342E-001	-2,033790618573353E-003	4,000000000000000E+000	1,0111943E-003	41	1,3188939E+000	-1,1138734E-006	-7,7121049E-001
2	0	0	1	0	1	6,287952841152946E+002	2,6247624E-001	2,6381868E-001	-4,989136892884098E-003	4,000000000000000E+000	9,7491301E-004	41	1,4366133E+000	-1,3162276E-006	-1,1727946E+000
2	1	0	0	0	0	6,427687837622943E+002	2,6995160E-002	2,8430078E-002	3,173022461634334E-002	4,000000000000000E+000	7,9573737E-004	41	9,1927457E-001	9,0209278E-007	-8,9084446E-001
2	1	0	1	0	0	6,569616834037515E+002	3,1085277E-001	3,1223646E-001	2,420735522455419E-003	4,000000000000000E+000	8,6374604E-004	41	9,7731346E-001	7,5584188E-007	-6,6507697E-001
2	0	0	1	0	0	6,711545830452087E+002	5,9470952E-001	5,9603548E-001	-3,634650696495231E-005	4,000000000000000E+000	8,6440390E-004	41	1,0450960E+000	-2,1663809E-008	-4,4906056E-001
2	1	0	1	0	0	6,853473826866684E+002	8,7856668E-001	8,7991017E-001	3,210776114556509E-003	4,000000000000000E+000	8,7921019E-004	41	9,2631495E-001	2,8251945E-006	-4,6404779E-002
2	1	0	0	0	0	6,993103823339334E+002	1,1578261E+000	1,1591800E+000	5,202036534268567E-003	5,000000000000000E+000	9,4488630E-004	41	7,9126585E-001	6,0300968E-006	3,6791420E-001
2	1	0	1	0	0	7,135032819753906E+002	1,4416848E+000	1,4430567E+000	6,002256418453950E-003	5,000000000000000E+000	1,0253785E-003	41	7,3466122E-001	8,6615964E-006	7,0839548E-001
2	1	0	0	0	0	7,271288816311790E+002	1,6857589E+000	1,6871538E+000	5,324261827651711E-002	5,000000000000000E+000	1,3812357E-003	41	4,3938803E-003	8,9828485E-005	1,6827599E+000
2	0	0	1	0	0	7,413216812726387E+002	1,4019047E+000	1,4032518E+000	-1,924208491284512E-004	5,000000000000000E+000	1,4600091E-003	41	9,2182791E-001	-2,7001491E-007	4,8142385E-001
2	0	0	0	0	0	7,555145809140959E+002	1,1180462E+000	1,1194113E+000	-8,120521570423259E-004	5,000000000000000E+000	1,4529150E-003	41	9,6542698E-001	-9,0902040E-007	1,5398437E-001
2	0	0	0	0	0	7,697074805555530E+002	8,3418721E-001	8,3553129E-001	-6,006943731659109E-003	5,000000000000000E+000	1,4204028E-003	41	1,1291097E+000	-5,0189897E-006	-2,9357845E-001
2	0	0	1	0	0	7,839002801970128E+002	5,5033290E-001	5,5170488E-001	-2,093137185501925E-003	5,000000000000000E+000	1,2632429E-003	41	1,3295738E+000	-1,1547941E-006	-7,7786887E-001
2	0	0	0	0	0	7,980931798384700E+002	2,6647463E-001	2,6785147E-001	-4,998896415682366E-003	5,000000000000000E+000	1,2266366E-003	41	1,4476161E+000	-1,3389617E-006	-1,1797646E+000
2	0	0	0	0	0	8,111619795083243E+002	4,9062776E-003	6,3791764E-003	-1,151606440544128E-001	5,000000000000000E+000	1,0575058E-003	41	3,2084901E+000	-7,3463008E-007	-3,2021110E+000

File: 2022-03-10 08_39_41 GC benchmarking2_09_01_CVA_DUSB0_C01.mpt
EC-Lab ASCII FILE
Nb header lines : 91

Cyclic Voltammetry Advanced

Run on channel : 1 (SN 5836)
User :
Electrode connection : standard
Ewe ctrl range : min = -5,00 V, max = 5,00 V
Ewe,I filtering : 50 kHz
Safety Limits :
	Do not start on E overload
Channel : Floating
Acquisition started on : 03/10/2022 09:00:30
Saved on :
	File : 2022-03-10 08_39_41 GC benchmarking2_09_01_CVA_DUSB0_C01.mpr
	Directory : C:\Users\Spectro Inlets Lab_1\Desktop\Zilien Data Dir\R&D\GC New Benchmarking Procedure\2022-03-10 08_39_41 GC benchmarking2\
	Host : 192.168.1.105
Device : SP-200 (SN 0763)
Address : USB
EC-Lab for windows v11.27 (software)
Internet server v11.25 (firmware)
Command interpretor v11.27 (firmware)
Electrode material :
Initial state :
Electrolyte :
Comments :
Cable : standard
Electrode surface area : 0,001 cm²
Characteristic mass : 0,001 g
Equivalent Weight : 0,000 g/eq.
Density : 0,000 g/cm3
Record EIS quality indicators
Cycle Definition : Charge/Discharge alternance
Ei (V)              0,000
vs.                 Ref
ti (h:m:s)          0:00:10,0000
dti (s)             1,0000
dE/dt               20,000
dE/dt unit          mV/s
E1 (V)              1,800
vs.                 Ref
t1 (h:m:s)          0:00:0,0000
dt1 (s)             0,1000
Step percent        80
N                   20
E range min (V)     -5,000
E range max (V)     5,000
I Range             100 µA
I Range min         Unset
I Range max         Unset
I Range init        Unset
Bandwidth           1
E2 (V)              -0,850
vs.                 Ref
t2 (h:m:s)          0:00:0,0000
dt2 (s)             0,1000
nc cycles           4
nr                  1
Reverse Scan        0
Ef (V)              0,000
vs.                 Eoc
tf (h:m:s)          0:00:0,0000
dtf (s)             0,1000

Modify on : 03/10/2022 09:02
E1 (V)              1,850

Modify on : 03/10/2022 09:03
E2 (V)              -0,800

Modify on : 03/10/2022 09:04
E2 (V)              -0,750

Modify on : 03/10/2022 09:06
E2 (V)              -0,775

Modify on : 03/10/2022 09:09
nc cycles           5

Modify on : 03/10/2022 09:19
E2 (V)              -0,800
nc cycles           6

Modify on : 03/10/2022 09:19
E2 (V)              -0,850

Modify on : 03/10/2022 09:22
nc cycles           7

mode	ox/red	error	control changes	Ns changes	counter inc.	time/s	control/V	Ewe/V	<I>/mA	cycle number	(Q-Qo)/C	I Range	P/W
2	0	0	1	0	0	0,000000000000000E+000	6,2669656E-005	2,2934264E-004	-6,185158272273839E-004	1,000000000000000E+000	0,0000000E+000	41	-1,4185204E-010
2	1	0	1	0	0	3,850079902738798E+001	5,6975573E-001	5,7009512E-001	7,360790340612336E-004	1,000000000000000E+000	9,4250072E-006	41	4,1963506E-007
2	1	0	0	0	0	6,908569825474842E+001	1,1814523E+000	1,1817724E+000	4,423719472825320E-003	1,000000000000000E+000	8,1201928E-005	41	5,2278292E-006
2	1	0	0	0	0	9,967059748210886E+001	1,7931510E+000	1,7935828E+000	2,736181829618956E-002	1,000000000000000E+000	4,0476551E-004	41	4,9075687E-005
2	0	0	0	0	0	1,298985967184854E+002	1,2022431E+000	1,2025949E+000	-6,059873401666176E-004	1,000000000000000E+000	4,6807356E-004	41	-7,2875724E-007
2	0	0	1	0	0	1,604834959458458E+002	5,9054506E-001	5,9087044E-001	-2,053440937510989E-003	1,000000000000000E+000	4,2940580E-004	41	-1,2133175E-006
2	0	0	1	0	0	1,910683951732062E+002	-2,1152265E-002	-2,0888384E-002	-3,199306279113225E-003	1,000000000000000E+000	3,4787229E-004	41	6,6828342E-008
2	0	0	0	0	0	2,216532944005667E+002	-6,3285071E-001	-6,3258296E-001	-7,416636935640375E-003	1,000000000000000E+000	2,1363072E-004	41	4,6916380E-006
2	1	0	1	0	1	2,517102936412630E+002	-3,6598277E-001	-3,6568022E-001	-9,381696996187605E-005	1,000000000000000E+000	-1,6754103E-004	41	3,4307011E-008
2	1	0	0	0	1	2,819153928782180E+002	2,3811963E-001	2,3846033E-001	1,321469005821557E-003	2,000000000000000E+000	-1,4841753E-004	41	3,1511794E-007
2	1	0	1	0	1	3,125002921055784E+002	8,4981692E-001	8,5018665E-001	2,783835316397767E-003	2,000000000000000E+000	-7,5379219E-005	41	2,3667797E-006
2	1	0	1	0	1	3,430851913329388E+002	1,4615149E+000	1,4619114E+000	5,455895608496270E-003	2,000000000000000E+000	3,2308006E-005	41	7,9760366E-006
2	1	0	1	0	1	3,732142905718138E+002	1,6358280E+000	1,6362333E+000	1,033977933739371E-003	2,000000000000000E+000	4,2026627E-004	41	1,6918292E-006
2	0	0	1	0	1	4,037991897991742E+002	1,0241312E+000	1,0244801E+000	-9,342705327142382E-004	2,000000000000000E+000	4,0621628E-004	41	-9,5714154E-007
2	0	0	0	0	1	4,343840890265346E+002	4,1243303E-001	4,1278514E-001	-2,715729055021571E-003	2,000000000000000E+000	3,4678157E-004	41	-1,1210126E-006
2	0	0	0	0	1	4,649689882538951E+002	-1,9926441E-001	-1,9895822E-001	-3,741092694294720E-003	2,000000000000000E+000	2,4678750E-004	41	7,4432114E-007
2	0	0	0	0	0	4,950653874935961E+002	-7,4879330E-001	-7,4846560E-001	-3,047975795874525E-002	2,000000000000000E+000	-5,0520754E-005	41	2,2813050E-005
2	1	0	1	0	0	5,256502867209565E+002	-1,3709360E-001	-1,3677470E-001	4,142627658983572E-004	2,000000000000000E+000	-1,7297476E-004	41	-5,6660667E-008
2	1	0	0	0	0	5,560052859541247E+002	4,7000590E-001	4,7032389E-001	2,322922397028457E-003	3,000000000000000E+000	-1,3180713E-004	41	1,0925258E-006
2	1	0	0	0	0	5,865901851814851E+002	1,0817027E+000	1,0820581E+000	3,068053465955144E-003	3,000000000000000E+000	-4,1813109E-005	41	3,3198121E-006
2	1	0	1	0	0	6,171750844088456E+002	1,6934009E+000	1,6938311E+000	1,578460688655181E-002	3,000000000000000E+000	1,4203158E-004	41	2,6736458E-005
2	1	0	0	0	0	6,473041836477205E+002	1,4039434E+000	1,4043101E+000	-3,693780362073601E-004	3,000000000000000E+000	4,3020712E-004	41	-5,1872132E-007
2	0	0	1	0	0	6,778890828750809E+002	7,9224432E-001	7,9257822E-001	-1,564684042793751E-003	3,000000000000000E+000	4,0071926E-004	41	-1,2401345E-006
2	0	0	1	0	0	7,084739821024414E+002	1,8054807E-001	1,8087767E-001	-3,047459560579467E-003	3,000000000000000E+000	3,1878281E-004	41	-5,5121740E-007
2	0	0	0	0	0	7,390588813298018E+002	-4,3115106E-001	-4,3090424E-001	-4,885503032746125E-003	3,000000000000000E+000	2,0247616E-004	41	2,1051840E-006
2	0	0	1	0	1	7,691551805695053E+002	-5,1690763E-001	-5,1658076E-001	-9,043863133817338E-004	3,000000000000000E+000	-8,2659877E-005	41	4,6718856E-007
2	1	0	1	0	1	7,995102798026710E+002	9,0194620E-002	9,0530112E-002	1,030841486272703E-003	4,000000000000000E+000	-7,1021088E-005	41	9,3322193E-008
2	1	0	1	0	1	8,300951790300314E+002	7,0189047E-001	7,0225453E-001	3,103745506323002E-003	4,000000000000000E+000	-2,1432488E-006	41	2,1796193E-006
2	1	0	0	0	1	8,606800782573919E+002	1,3135896E+000	1,3139471E+000	3,890542353609600E-003	4,000000000000000E+000	9,8944227E-005	41	5,1119669E-006
2	1	0	1	0	1	8,908090774962693E+002	1,7837572E+000	1,7841578E+000	1,015683721513757E-002	4,000000000000000E+000	5,1828788E-004	41	1,8121400E-005
2	0	0	1	0	1	9,213939767236297E+002	1,1720580E+000	1,1724180E+000	-7,369709695878657E-004	4,000000000000000E+000	5,4091710E-004	41	-8,6403804E-007
2	0	0	0	0	1	9,519788759509902E+002	5,6036228E-001	5,6068587E-001	-2,729715423719720E-003	4,000000000000000E+000	4,9197039E-004	41	-1,5305129E-006
2	0	0	0	0	1	9,825637751783506E+002	-5,1337380E-002	-5,1045567E-002	-3,508854504175651E-003	4,000000000000000E+000	3,9409389E-004	41	1,7911147E-007
2	0	0	1	0	1	1,013148774405709E+003	-6,6303557E-001	-6,6280013E-001	-8,435720618172906E-003	4,000000000000000E+000	2,4046063E-004	41	5,5911969E-006
[...]
2	1	0	0	0	1	1,378176865184323E+003	1,0137380E+000	1,0140918E+000	3,609909309315769E-003	6,000000000000000E+000	3,1078295E-004	41	3,6607796E-006
2	1	0	0	0	1	1,408761764411684E+003	1,6254338E+000	1,6258484E+000	1,267247516692516E-002	6,000000000000000E+000	4,8371969E-004	41	2,0603524E-005
2	1	0	1	0	1	1,438890763650561E+003	1,4719098E+000	1,4723374E+000	-1,571856869858087E-004	6,000000000000000E+000	8,6513732E-004	41	-2,3143036E-007
2	0	0	0	0	1	1,469475662877921E+003	8,6021399E-001	8,6059189E-001	-1,442596501290014E-003	6,000000000000000E+000	8,3805725E-004	41	-1,2414869E-006
2	0	0	0	0	1	1,500060562105282E+003	2,4851446E-001	2,4884230E-001	-3,304407911907227E-003	6,000000000000000E+000	7,5425854E-004	41	-8,2227643E-007
2	0	0	1	0	1	1,530645561332640E+003	-3,6318353E-001	-3,6289567E-001	-4,687487703976270E-003	6,000000000000000E+000	6,3538400E-004	41	1,7010690E-006
2	0	0	0	0	0	1,560693760573558E+003	-7,3579973E-001	-7,3548573E-001	-9,188626608464007E-003	6,000000000000000E+000	2,8986280E-004	41	6,7581036E-006
2	1	0	1	0	0	1,591278659800919E+003	-1,2410338E-001	-1,2377511E-001	5,994595600985276E-004	6,000000000000000E+000	2,6788531E-004	41	-7,4198169E-008
2	1	0	0	0	0	1,621583759035348E+003	4,8199910E-001	4,8233354E-001	3,117690189898437E-003	7,000000000000000E+000	3,2279518E-004	41	1,5037665E-006
2	1	0	1	0	0	1,652168658262708E+003	1,0936972E+000	1,0940319E+000	3,760943789777323E-003	7,000000000000000E+000	4,3640312E-004	41	4,1145927E-006
2	1	0	1	0	0	1,682753557490068E+003	1,7053945E+000	1,7058165E+000	1,960636618886191E-002	7,000000000000000E+000	6,6322123E-004	41	3,3444863E-005
2	0	0	1	0	0	1,712882656728943E+003	1,3919479E+000	1,3923426E+000	-3,950465867079500E-004	7,000000000000000E+000	9,8939368E-004	41	-5,5004017E-007
2	0	0	1	0	0	1,743467555956304E+003	7,8025168E-001	7,8060144E-001	-1,782442197982168E-003	7,000000000000000E+000	9,5641718E-004	41	-1,3913769E-006
2	0	0	0	0	0	1,774052455183664E+003	1,6855274E-001	1,6886060E-001	-3,464067494896639E-003	7,000000000000000E+000	8,6340605E-004	41	-5,8494453E-007
2	0	0	0	0	0	1,804637354411025E+003	-4,4314408E-001	-4,4288954E-001	-5,456983683152880E-003	7,000000000000000E+000	7,3495577E-004	41	2,4168410E-006
2	0	0	0	0	1	1,834685653651941E+003	-6,5583766E-001	-6,5556133E-001	-2,524925832899460E-003	7,000000000000000E+000	3,9582906E-004	41	1,6552438E-006
2	1	0	0	0	1	1,865270552879301E+003	-4,4140924E-002	-4,3863922E-002	8,381592700979178E-004	7,000000000000000E+000	3,9996501E-004	41	-3,6764952E-008
2	1	0	1	0	1	1,895575552113733E+003	5,6195956E-001	5,6232750E-001	3,536613481500958E-003	8,000000000000000E+000	4,6674404E-004	41	1,9887350E-006
2	1	0	0	0	1	1,926160451341093E+003	1,1736567E+000	1,1740186E+000	3,992215413260197E-003	8,000000000000000E+000	5,8540981E-004	41	4,6869354E-006
2	1	0	0	0	1	1,956745350568453E+003	1,7853547E+000	1,7857976E+000	3,100094860194980E-002	8,000000000000000E+000	9,0184348E-004	41	5,5361419E-005
2	0	0	0	0	1	1,986874449807328E+003	1,3119886E+000	1,3123873E+000	-5,562361773747346E-004	8,000000000000000E+000	1,1336169E-003	41	-7,2999734E-007
2	0	0	0	0	1	2,017459349034689E+003	7,0029128E-001	7,0064461E-001	-2,270784645633846E-003	8,000000000000000E+000	1,0938065E-003	41	-1,5910131E-006
2	0	0	1	0	1	2,048044248262049E+003	8,8593513E-002	8,8913061E-002	-3,634789641236147E-003	8,000000000000000E+000	9,9266565E-004	41	-3,2318027E-007
2	0	0	1	0	1	2,078629147489410E+003	-5,2310461E-001	-5,2279830E-001	-6,432554589736600E-003	8,000000000000000E+000	8,5197168E-004	41	3,3629285E-006
2	0	0	0	0	1	2,094969147076627E+003	-8,5004306E-001	-8,4970462E-001	-3,222008794546127E-002	8,000000000000000E+000	6,4908690E-004	41	2,7377559E-005